#
# Results on Tue, 27 Feb 2024 11:37:07 GMT
# USER AGENT: Mozilla/5.0 (Macintosh; Intel Mac OS X 10_15_7) AppleWebKit/605.1.15 (KHTML, like Gecko) Version/16.2 Safari/605.1.15
# Design number was non-random = 0
#
# Columns below this comment are as follows:
# 1. Results reception time.
# 2. MD5 hash of participant's IP address.
# 3. Controller name.
# 4. Order number of item.
# 5. Inner element number.
# 6. Label.
# 7. Latin Square Group.
# 8. PennElementType.
# 9. PennElementName.
# 10. Parameter.
# 11. Value.
# 12. EventTime.
# 13. Comments.
1709033827,ce7bc4ca2eda4c00cccf15bd83f05e57,PennController,2,0,consent_demographics,NULL,PennController,0,_Trial_,Start,1709033171139,NULL
1709033827,ce7bc4ca2eda4c00cccf15bd83f05e57,PennController,2,0,consent_demographics,NULL,PennController,0,_Trial_,End,1709033199514,NULL
1709033827,ce7bc4ca2eda4c00cccf15bd83f05e57,PennController,2,0,consent_demographics,NULL,Html,consent_demographics,Gender,Female,1709033199514,radio button
1709033827,ce7bc4ca2eda4c00cccf15bd83f05e57,PennController,2,0,consent_demographics,NULL,Html,consent_demographics,consent,on,1709033199514,radio button
1709033827,ce7bc4ca2eda4c00cccf15bd83f05e57,PennController,2,0,consent_demographics,NULL,Html,consent_demographics,lang,English,1709033199514,text input
1709033827,ce7bc4ca2eda4c00cccf15bd83f05e57,PennController,2,0,consent_demographics,NULL,Html,consent_demographics,age,18,1709033199514,text input
1709033827,ce7bc4ca2eda4c00cccf15bd83f05e57,PennController,3,0,instr_example,NULL,PennController,1,_Trial_,Start,1709033199515,NULL
1709033827,ce7bc4ca2eda4c00cccf15bd83f05e57,PennController,3,0,instr_example,NULL,PennController,1,_Trial_,End,1709033263632,NULL
1709033827,ce7bc4ca2eda4c00cccf15bd83f05e57,PennController,3,0,instr_example,NULL,Html,instr_example,practice,6,1709033263632,radio button
# 13. group.
# 14. item_id.
# 15. condition.
# 16. RT_firstChoice.
# 17. RT_secondChoice.
# 18. Comments.
1709033827,ce7bc4ca2eda4c00cccf15bd83f05e57,PennController,49,0,main_trials,NULL,PennController,47,_Trial_,Start,1709033263635,a,f2,pos_nonmorph,6557,7343,NULL
1709033827,ce7bc4ca2eda4c00cccf15bd83f05e57,PennController,49,0,main_trials,NULL,Scale,rating,Choice,1,1709033270192,a,f2,pos_nonmorph,6557,7343,NULL
1709033827,ce7bc4ca2eda4c00cccf15bd83f05e57,PennController,49,0,main_trials,NULL,PennController,47,_Trial_,End,1709033270982,a,f2,pos_nonmorph,6557,7343,NULL
1709033827,ce7bc4ca2eda4c00cccf15bd83f05e57,PennController,46,0,main_trials,NULL,PennController,44,_Trial_,Start,1709033270985,a,20,nonstandard_neg_nonmorph,11933,17982,NULL
1709033827,ce7bc4ca2eda4c00cccf15bd83f05e57,PennController,46,0,main_trials,NULL,Scale,rating,Choice,6,1709033282918,a,20,nonstandard_neg_nonmorph,11933,17982,NULL
1709033827,ce7bc4ca2eda4c00cccf15bd83f05e57,PennController,46,0,main_trials,NULL,Scale,rating,Choice,7,1709033288208,a,20,nonstandard_neg_nonmorph,11933,17982,NULL
1709033827,ce7bc4ca2eda4c00cccf15bd83f05e57,PennController,46,0,main_trials,NULL,PennController,44,_Trial_,End,1709033288970,a,20,nonstandard_neg_nonmorph,11933,17982,NULL
1709033827,ce7bc4ca2eda4c00cccf15bd83f05e57,PennController,55,0,main_trials,NULL,PennController,53,_Trial_,Start,1709033288973,a,f5,pos_morph,17089,17857,NULL
1709033827,ce7bc4ca2eda4c00cccf15bd83f05e57,PennController,55,0,main_trials,NULL,Scale,rating,Choice,1,1709033306062,a,f5,pos_morph,17089,17857,NULL
1709033827,ce7bc4ca2eda4c00cccf15bd83f05e57,PennController,55,0,main_trials,NULL,PennController,53,_Trial_,End,1709033306834,a,f5,pos_morph,17089,17857,NULL
1709033827,ce7bc4ca2eda4c00cccf15bd83f05e57,PennController,27,0,main_trials,NULL,PennController,25,_Trial_,Start,1709033306836,a,11,standard_pos_morph,14704,15780,NULL
1709033827,ce7bc4ca2eda4c00cccf15bd83f05e57,PennController,27,0,main_trials,NULL,Scale,rating,Choice,7,1709033321541,a,11,standard_pos_morph,14704,15780,NULL
1709033827,ce7bc4ca2eda4c00cccf15bd83f05e57,PennController,27,0,main_trials,NULL,PennController,25,_Trial_,End,1709033322619,a,11,standard_pos_morph,14704,15780,NULL
1709033827,ce7bc4ca2eda4c00cccf15bd83f05e57,PennController,30,0,main_trials,NULL,PennController,28,_Trial_,Start,1709033322622,a,12,nonstandard_neg_nonmorph,9087,10525,NULL
1709033827,ce7bc4ca2eda4c00cccf15bd83f05e57,PennController,30,0,main_trials,NULL,Scale,rating,Choice,5,1709033331708,a,12,nonstandard_neg_nonmorph,9087,10525,NULL
1709033827,ce7bc4ca2eda4c00cccf15bd83f05e57,PennController,30,0,main_trials,NULL,PennController,28,_Trial_,End,1709033333149,a,12,nonstandard_neg_nonmorph,9087,10525,NULL
1709033827,ce7bc4ca2eda4c00cccf15bd83f05e57,PennController,29,0,main_trials,NULL,PennController,27,_Trial_,Start,1709033333152,a,12,standard_pos_nonmorph,8609,12613,NULL
1709033827,ce7bc4ca2eda4c00cccf15bd83f05e57,PennController,29,0,main_trials,NULL,Scale,rating,Choice,5,1709033341761,a,12,standard_pos_nonmorph,8609,12613,NULL
1709033827,ce7bc4ca2eda4c00cccf15bd83f05e57,PennController,29,0,main_trials,NULL,Scale,rating,Choice,6,1709033344123,a,12,standard_pos_nonmorph,8609,12613,NULL
1709033827,ce7bc4ca2eda4c00cccf15bd83f05e57,PennController,29,0,main_trials,NULL,PennController,27,_Trial_,End,1709033345769,a,12,standard_pos_nonmorph,8609,12613,NULL
1709033827,ce7bc4ca2eda4c00cccf15bd83f05e57,PennController,54,0,main_trials,NULL,PennController,52,_Trial_,Start,1709033345773,a,f4,neg_nonmorph,3632,4837,NULL
1709033827,ce7bc4ca2eda4c00cccf15bd83f05e57,PennController,54,0,main_trials,NULL,Scale,rating,Choice,1,1709033349405,a,f4,neg_nonmorph,3632,4837,NULL
1709033827,ce7bc4ca2eda4c00cccf15bd83f05e57,PennController,54,0,main_trials,NULL,PennController,52,_Trial_,End,1709033350612,a,f4,neg_nonmorph,3632,4837,NULL
1709033827,ce7bc4ca2eda4c00cccf15bd83f05e57,PennController,45,0,main_trials,NULL,PennController,43,_Trial_,Start,1709033350615,a,20,standard_pos_nonmorph,2582,4742,NULL
1709033827,ce7bc4ca2eda4c00cccf15bd83f05e57,PennController,45,0,main_trials,NULL,Scale,rating,Choice,6,1709033353198,a,20,standard_pos_nonmorph,2582,4742,NULL
1709033827,ce7bc4ca2eda4c00cccf15bd83f05e57,PennController,45,0,main_trials,NULL,PennController,43,_Trial_,End,1709033355360,a,20,standard_pos_nonmorph,2582,4742,NULL
1709033827,ce7bc4ca2eda4c00cccf15bd83f05e57,PennController,34,0,main_trials,NULL,PennController,32,_Trial_,Start,1709033355363,a,14,nonstandard_neg_nonmorph,6061,16245,NULL
1709033827,ce7bc4ca2eda4c00cccf15bd83f05e57,PennController,34,0,main_trials,NULL,Scale,rating,Choice,5,1709033361423,a,14,nonstandard_neg_nonmorph,6061,16245,NULL
1709033827,ce7bc4ca2eda4c00cccf15bd83f05e57,PennController,34,0,main_trials,NULL,PennController,32,_Trial_,End,1709033371609,a,14,nonstandard_neg_nonmorph,6061,16245,NULL
1709033827,ce7bc4ca2eda4c00cccf15bd83f05e57,PennController,51,0,main_trials,NULL,PennController,49,_Trial_,Start,1709033371612,a,f3,neg_nonmorph,6462,7287,NULL
1709033827,ce7bc4ca2eda4c00cccf15bd83f05e57,PennController,51,0,main_trials,NULL,Scale,rating,Choice,1,1709033378074,a,f3,neg_nonmorph,6462,7287,NULL
1709033827,ce7bc4ca2eda4c00cccf15bd83f05e57,PennController,51,0,main_trials,NULL,PennController,49,_Trial_,End,1709033378901,a,f3,neg_nonmorph,6462,7287,NULL
1709033827,ce7bc4ca2eda4c00cccf15bd83f05e57,PennController,38,0,main_trials,NULL,PennController,36,_Trial_,Start,1709033378904,a,16,nonstandard_neg_nonmorph,24761,35745,NULL
1709033827,ce7bc4ca2eda4c00cccf15bd83f05e57,PennController,38,0,main_trials,NULL,Scale,rating,Choice,5,1709033403665,a,16,nonstandard_neg_nonmorph,24761,35745,NULL
1709033827,ce7bc4ca2eda4c00cccf15bd83f05e57,PennController,38,0,main_trials,NULL,Scale,rating,Choice,4,1709033413678,a,16,nonstandard_neg_nonmorph,24761,35745,NULL
1709033827,ce7bc4ca2eda4c00cccf15bd83f05e57,PennController,38,0,main_trials,NULL,PennController,36,_Trial_,End,1709033414652,a,16,nonstandard_neg_nonmorph,24761,35745,NULL
1709033827,ce7bc4ca2eda4c00cccf15bd83f05e57,PennController,40,0,main_trials,NULL,PennController,38,_Trial_,Start,1709033414656,a,17,nonstandard_neg_nonmorph,5510,8956,NULL
1709033827,ce7bc4ca2eda4c00cccf15bd83f05e57,PennController,40,0,main_trials,NULL,Scale,rating,Choice,4,1709033420166,a,17,nonstandard_neg_nonmorph,5510,8956,NULL
1709033827,ce7bc4ca2eda4c00cccf15bd83f05e57,PennController,40,0,main_trials,NULL,Scale,rating,Choice,6,1709033422535,a,17,nonstandard_neg_nonmorph,5510,8956,NULL
1709033827,ce7bc4ca2eda4c00cccf15bd83f05e57,PennController,40,0,main_trials,NULL,PennController,38,_Trial_,End,1709033423614,a,17,nonstandard_neg_nonmorph,5510,8956,NULL
1709033827,ce7bc4ca2eda4c00cccf15bd83f05e57,PennController,56,0,main_trials,NULL,PennController,54,_Trial_,Start,1709033423617,a,f5,neg_morph,5828,6556,NULL
1709033827,ce7bc4ca2eda4c00cccf15bd83f05e57,PennController,56,0,main_trials,NULL,Scale,rating,Choice,1,1709033429446,a,f5,neg_morph,5828,6556,NULL
1709033827,ce7bc4ca2eda4c00cccf15bd83f05e57,PennController,56,0,main_trials,NULL,PennController,54,_Trial_,End,1709033430176,a,f5,neg_morph,5828,6556,NULL
1709033827,ce7bc4ca2eda4c00cccf15bd83f05e57,PennController,17,0,main_trials,NULL,PennController,15,_Trial_,Start,1709033430178,a,6,standard_pos_morph,9343,10064,NULL
1709033827,ce7bc4ca2eda4c00cccf15bd83f05e57,PennController,17,0,main_trials,NULL,Scale,rating,Choice,7,1709033439522,a,6,standard_pos_morph,9343,10064,NULL
1709033827,ce7bc4ca2eda4c00cccf15bd83f05e57,PennController,17,0,main_trials,NULL,PennController,15,_Trial_,End,1709033440244,a,6,standard_pos_morph,9343,10064,NULL
1709033827,ce7bc4ca2eda4c00cccf15bd83f05e57,PennController,48,0,main_trials,NULL,PennController,46,_Trial_,Start,1709033440246,a,f1,neg_nonmorph,5277,6029,NULL
1709033827,ce7bc4ca2eda4c00cccf15bd83f05e57,PennController,48,0,main_trials,NULL,Scale,rating,Choice,1,1709033445524,a,f1,neg_nonmorph,5277,6029,NULL
1709033827,ce7bc4ca2eda4c00cccf15bd83f05e57,PennController,48,0,main_trials,NULL,PennController,46,_Trial_,End,1709033446278,a,f1,neg_nonmorph,5277,6029,NULL
1709033827,ce7bc4ca2eda4c00cccf15bd83f05e57,PennController,32,0,main_trials,NULL,PennController,30,_Trial_,Start,1709033446281,a,13,nonstandard_neg_nonmorph,4557,10137,NULL
1709033827,ce7bc4ca2eda4c00cccf15bd83f05e57,PennController,32,0,main_trials,NULL,Scale,rating,Choice,4,1709033450837,a,13,nonstandard_neg_nonmorph,4557,10137,NULL
1709033827,ce7bc4ca2eda4c00cccf15bd83f05e57,PennController,32,0,main_trials,NULL,Scale,rating,Choice,5,1709033455342,a,13,nonstandard_neg_nonmorph,4557,10137,NULL
1709033827,ce7bc4ca2eda4c00cccf15bd83f05e57,PennController,32,0,main_trials,NULL,PennController,30,_Trial_,End,1709033456420,a,13,nonstandard_neg_nonmorph,4557,10137,NULL
1709033827,ce7bc4ca2eda4c00cccf15bd83f05e57,PennController,35,0,main_trials,NULL,PennController,33,_Trial_,Start,1709033456422,a,15,standard_pos_nonmorph,9773,10801,NULL
1709033827,ce7bc4ca2eda4c00cccf15bd83f05e57,PennController,35,0,main_trials,NULL,Scale,rating,Choice,6,1709033466196,a,15,standard_pos_nonmorph,9773,10801,NULL
1709033827,ce7bc4ca2eda4c00cccf15bd83f05e57,PennController,35,0,main_trials,NULL,PennController,33,_Trial_,End,1709033467226,a,15,standard_pos_nonmorph,9773,10801,NULL
1709033827,ce7bc4ca2eda4c00cccf15bd83f05e57,PennController,33,0,main_trials,NULL,PennController,31,_Trial_,Start,1709033467228,a,14,standard_pos_nonmorph,9635,12336,NULL
1709033827,ce7bc4ca2eda4c00cccf15bd83f05e57,PennController,33,0,main_trials,NULL,Scale,rating,Choice,5,1709033476862,a,14,standard_pos_nonmorph,9635,12336,NULL
1709033827,ce7bc4ca2eda4c00cccf15bd83f05e57,PennController,33,0,main_trials,NULL,Scale,rating,Choice,6,1709033478793,a,14,standard_pos_nonmorph,9635,12336,NULL
1709033827,ce7bc4ca2eda4c00cccf15bd83f05e57,PennController,33,0,main_trials,NULL,PennController,31,_Trial_,End,1709033479566,a,14,standard_pos_nonmorph,9635,12336,NULL
1709033827,ce7bc4ca2eda4c00cccf15bd83f05e57,PennController,53,0,main_trials,NULL,PennController,51,_Trial_,Start,1709033479570,a,f4,pos_nonmorph,4790,5662,NULL
1709033827,ce7bc4ca2eda4c00cccf15bd83f05e57,PennController,53,0,main_trials,NULL,Scale,rating,Choice,1,1709033484360,a,f4,pos_nonmorph,4790,5662,NULL
1709033827,ce7bc4ca2eda4c00cccf15bd83f05e57,PennController,53,0,main_trials,NULL,PennController,51,_Trial_,End,1709033485234,a,f4,pos_nonmorph,4790,5662,NULL
1709033827,ce7bc4ca2eda4c00cccf15bd83f05e57,PennController,14,0,main_trials,NULL,PennController,12,_Trial_,Start,1709033485237,a,4,nonstandard_neg_morph,4962,6459,NULL
1709033827,ce7bc4ca2eda4c00cccf15bd83f05e57,PennController,14,0,main_trials,NULL,Scale,rating,Choice,4,1709033490198,a,4,nonstandard_neg_morph,4962,6459,NULL
1709033827,ce7bc4ca2eda4c00cccf15bd83f05e57,PennController,14,0,main_trials,NULL,PennController,12,_Trial_,End,1709033491696,a,4,nonstandard_neg_morph,4962,6459,NULL
1709033827,ce7bc4ca2eda4c00cccf15bd83f05e57,PennController,52,0,main_trials,NULL,PennController,50,_Trial_,Start,1709033491698,a,f3,pos_nonmorph,10437,11625,NULL
1709033827,ce7bc4ca2eda4c00cccf15bd83f05e57,PennController,52,0,main_trials,NULL,Scale,rating,Choice,1,1709033502134,a,f3,pos_nonmorph,10437,11625,NULL
1709033827,ce7bc4ca2eda4c00cccf15bd83f05e57,PennController,52,0,main_trials,NULL,PennController,50,_Trial_,End,1709033503323,a,f3,pos_nonmorph,10437,11625,NULL
1709033827,ce7bc4ca2eda4c00cccf15bd83f05e57,PennController,11,0,main_trials,NULL,PennController,9,_Trial_,Start,1709033503324,a,3,standard_pos_morph,10596,14306,NULL
1709033827,ce7bc4ca2eda4c00cccf15bd83f05e57,PennController,11,0,main_trials,NULL,Scale,rating,Choice,7,1709033513921,a,3,standard_pos_morph,10596,14306,NULL
1709033827,ce7bc4ca2eda4c00cccf15bd83f05e57,PennController,11,0,main_trials,NULL,PennController,9,_Trial_,End,1709033517632,a,3,standard_pos_morph,10596,14306,NULL
1709033827,ce7bc4ca2eda4c00cccf15bd83f05e57,PennController,42,0,main_trials,NULL,PennController,40,_Trial_,Start,1709033517635,a,18,nonstandard_neg_nonmorph,12753,19797,NULL
1709033827,ce7bc4ca2eda4c00cccf15bd83f05e57,PennController,42,0,main_trials,NULL,Scale,rating,Choice,4,1709033530387,a,18,nonstandard_neg_nonmorph,12753,19797,NULL
1709033827,ce7bc4ca2eda4c00cccf15bd83f05e57,PennController,42,0,main_trials,NULL,PennController,40,_Trial_,End,1709033537434,a,18,nonstandard_neg_nonmorph,12753,19797,NULL
1709033827,ce7bc4ca2eda4c00cccf15bd83f05e57,PennController,28,0,main_trials,NULL,PennController,26,_Trial_,Start,1709033537436,a,11,nonstandard_neg_morph,9734,14467,NULL
1709033827,ce7bc4ca2eda4c00cccf15bd83f05e57,PennController,28,0,main_trials,NULL,Scale,rating,Choice,5,1709033547170,a,11,nonstandard_neg_morph,9734,14467,NULL
1709033827,ce7bc4ca2eda4c00cccf15bd83f05e57,PennController,28,0,main_trials,NULL,Scale,rating,Choice,6,1709033551222,a,11,nonstandard_neg_morph,9734,14467,NULL
1709033827,ce7bc4ca2eda4c00cccf15bd83f05e57,PennController,28,0,main_trials,NULL,PennController,26,_Trial_,End,1709033551905,a,11,nonstandard_neg_morph,9734,14467,NULL
1709033827,ce7bc4ca2eda4c00cccf15bd83f05e57,PennController,24,0,main_trials,NULL,PennController,22,_Trial_,Start,1709033551909,a,9,nonstandard_neg_morph,9093,13176,NULL
1709033827,ce7bc4ca2eda4c00cccf15bd83f05e57,PennController,24,0,main_trials,NULL,Scale,rating,Choice,6,1709033561000,a,9,nonstandard_neg_morph,9093,13176,NULL
1709033827,ce7bc4ca2eda4c00cccf15bd83f05e57,PennController,24,0,main_trials,NULL,PennController,22,_Trial_,End,1709033565087,a,9,nonstandard_neg_morph,9093,13176,NULL
1709033827,ce7bc4ca2eda4c00cccf15bd83f05e57,PennController,26,0,main_trials,NULL,PennController,24,_Trial_,Start,1709033565090,a,10,nonstandard_neg_morph,14273,15253,NULL
1709033827,ce7bc4ca2eda4c00cccf15bd83f05e57,PennController,26,0,main_trials,NULL,Scale,rating,Choice,4,1709033579363,a,10,nonstandard_neg_morph,14273,15253,NULL
1709033827,ce7bc4ca2eda4c00cccf15bd83f05e57,PennController,26,0,main_trials,NULL,PennController,24,_Trial_,End,1709033580346,a,10,nonstandard_neg_morph,14273,15253,NULL
1709033827,ce7bc4ca2eda4c00cccf15bd83f05e57,PennController,47,0,main_trials,NULL,PennController,45,_Trial_,Start,1709033580348,a,f1,pos_nonmorph,3754,4710,NULL
1709033827,ce7bc4ca2eda4c00cccf15bd83f05e57,PennController,47,0,main_trials,NULL,Scale,rating,Choice,1,1709033584103,a,f1,pos_nonmorph,3754,4710,NULL
1709033827,ce7bc4ca2eda4c00cccf15bd83f05e57,PennController,47,0,main_trials,NULL,PennController,45,_Trial_,End,1709033585060,a,f1,pos_nonmorph,3754,4710,NULL
1709033827,ce7bc4ca2eda4c00cccf15bd83f05e57,PennController,22,0,main_trials,NULL,PennController,20,_Trial_,Start,1709033585063,a,8,nonstandard_neg_morph,8951,9897,NULL
1709033827,ce7bc4ca2eda4c00cccf15bd83f05e57,PennController,22,0,main_trials,NULL,Scale,rating,Choice,5,1709033594014,a,8,nonstandard_neg_morph,8951,9897,NULL
1709033827,ce7bc4ca2eda4c00cccf15bd83f05e57,PennController,22,0,main_trials,NULL,PennController,20,_Trial_,End,1709033594962,a,8,nonstandard_neg_morph,8951,9897,NULL
1709033827,ce7bc4ca2eda4c00cccf15bd83f05e57,PennController,44,0,main_trials,NULL,PennController,42,_Trial_,Start,1709033594964,a,19,nonstandard_neg_nonmorph,9177,10884,NULL
1709033827,ce7bc4ca2eda4c00cccf15bd83f05e57,PennController,44,0,main_trials,NULL,Scale,rating,Choice,4,1709033604141,a,19,nonstandard_neg_nonmorph,9177,10884,NULL
1709033827,ce7bc4ca2eda4c00cccf15bd83f05e57,PennController,44,0,main_trials,NULL,PennController,42,_Trial_,End,1709033605851,a,19,nonstandard_neg_nonmorph,9177,10884,NULL
1709033827,ce7bc4ca2eda4c00cccf15bd83f05e57,PennController,12,0,main_trials,NULL,PennController,10,_Trial_,Start,1709033605853,a,3,nonstandard_neg_morph,18410,30444,NULL
1709033827,ce7bc4ca2eda4c00cccf15bd83f05e57,PennController,12,0,main_trials,NULL,Scale,rating,Choice,6,1709033624262,a,3,nonstandard_neg_morph,18410,30444,NULL
1709033827,ce7bc4ca2eda4c00cccf15bd83f05e57,PennController,12,0,main_trials,NULL,PennController,10,_Trial_,End,1709033636299,a,3,nonstandard_neg_morph,18410,30444,NULL
1709033827,ce7bc4ca2eda4c00cccf15bd83f05e57,PennController,31,0,main_trials,NULL,PennController,29,_Trial_,Start,1709033636302,a,13,standard_pos_nonmorph,12822,13867,NULL
1709033827,ce7bc4ca2eda4c00cccf15bd83f05e57,PennController,31,0,main_trials,NULL,Scale,rating,Choice,6,1709033649123,a,13,standard_pos_nonmorph,12822,13867,NULL
1709033827,ce7bc4ca2eda4c00cccf15bd83f05e57,PennController,31,0,main_trials,NULL,PennController,29,_Trial_,End,1709033650171,a,13,standard_pos_nonmorph,12822,13867,NULL
1709033827,ce7bc4ca2eda4c00cccf15bd83f05e57,PennController,50,0,main_trials,NULL,PennController,48,_Trial_,Start,1709033650173,a,f2,neg_nonmorph,5745,6812,NULL
1709033827,ce7bc4ca2eda4c00cccf15bd83f05e57,PennController,50,0,main_trials,NULL,Scale,rating,Choice,1,1709033655918,a,f2,neg_nonmorph,5745,6812,NULL
1709033827,ce7bc4ca2eda4c00cccf15bd83f05e57,PennController,50,0,main_trials,NULL,PennController,48,_Trial_,End,1709033656987,a,f2,neg_nonmorph,5745,6812,NULL
1709033827,ce7bc4ca2eda4c00cccf15bd83f05e57,PennController,41,0,main_trials,NULL,PennController,39,_Trial_,Start,1709033656990,a,18,standard_pos_nonmorph,9496,22170,NULL
1709033827,ce7bc4ca2eda4c00cccf15bd83f05e57,PennController,41,0,main_trials,NULL,Scale,rating,Choice,7,1709033666486,a,18,standard_pos_nonmorph,9496,22170,NULL
1709033827,ce7bc4ca2eda4c00cccf15bd83f05e57,PennController,41,0,main_trials,NULL,PennController,39,_Trial_,End,1709033679162,a,18,standard_pos_nonmorph,9496,22170,NULL
1709033827,ce7bc4ca2eda4c00cccf15bd83f05e57,PennController,20,0,main_trials,NULL,PennController,18,_Trial_,Start,1709033679165,a,7,nonstandard_neg_morph,8259,9489,NULL
1709033827,ce7bc4ca2eda4c00cccf15bd83f05e57,PennController,20,0,main_trials,NULL,Scale,rating,Choice,4,1709033687424,a,7,nonstandard_neg_morph,8259,9489,NULL
1709033827,ce7bc4ca2eda4c00cccf15bd83f05e57,PennController,20,0,main_trials,NULL,PennController,18,_Trial_,End,1709033688657,a,7,nonstandard_neg_morph,8259,9489,NULL
1709033827,ce7bc4ca2eda4c00cccf15bd83f05e57,PennController,16,0,main_trials,NULL,PennController,14,_Trial_,Start,1709033688659,a,5,nonstandard_neg_morph,5236,6232,NULL
1709033827,ce7bc4ca2eda4c00cccf15bd83f05e57,PennController,16,0,main_trials,NULL,Scale,rating,Choice,4,1709033693895,a,5,nonstandard_neg_morph,5236,6232,NULL
1709033827,ce7bc4ca2eda4c00cccf15bd83f05e57,PennController,16,0,main_trials,NULL,PennController,14,_Trial_,End,1709033694893,a,5,nonstandard_neg_morph,5236,6232,NULL
1709033827,ce7bc4ca2eda4c00cccf15bd83f05e57,PennController,19,0,main_trials,NULL,PennController,17,_Trial_,Start,1709033694895,a,7,standard_pos_morph,4777,7420,NULL
1709033827,ce7bc4ca2eda4c00cccf15bd83f05e57,PennController,19,0,main_trials,NULL,Scale,rating,Choice,6,1709033699671,a,7,standard_pos_morph,4777,7420,NULL
1709033827,ce7bc4ca2eda4c00cccf15bd83f05e57,PennController,19,0,main_trials,NULL,Scale,rating,Choice,7,1709033700875,a,7,standard_pos_morph,4777,7420,NULL
1709033827,ce7bc4ca2eda4c00cccf15bd83f05e57,PennController,19,0,main_trials,NULL,PennController,17,_Trial_,End,1709033702316,a,7,standard_pos_morph,4777,7420,NULL
1709033827,ce7bc4ca2eda4c00cccf15bd83f05e57,PennController,13,0,main_trials,NULL,PennController,11,_Trial_,Start,1709033702318,a,4,standard_pos_morph,2738,4073,NULL
1709033827,ce7bc4ca2eda4c00cccf15bd83f05e57,PennController,13,0,main_trials,NULL,Scale,rating,Choice,7,1709033705057,a,4,standard_pos_morph,2738,4073,NULL
1709033827,ce7bc4ca2eda4c00cccf15bd83f05e57,PennController,13,0,main_trials,NULL,PennController,11,_Trial_,End,1709033706394,a,4,standard_pos_morph,2738,4073,NULL
1709033827,ce7bc4ca2eda4c00cccf15bd83f05e57,PennController,37,0,main_trials,NULL,PennController,35,_Trial_,Start,1709033706396,a,16,standard_pos_nonmorph,2041,6812,NULL
1709033827,ce7bc4ca2eda4c00cccf15bd83f05e57,PennController,37,0,main_trials,NULL,Scale,rating,Choice,7,1709033708437,a,16,standard_pos_nonmorph,2041,6812,NULL
1709033827,ce7bc4ca2eda4c00cccf15bd83f05e57,PennController,37,0,main_trials,NULL,Scale,rating,Choice,6,1709033712570,a,16,standard_pos_nonmorph,2041,6812,NULL
1709033827,ce7bc4ca2eda4c00cccf15bd83f05e57,PennController,37,0,main_trials,NULL,PennController,35,_Trial_,End,1709033713211,a,16,standard_pos_nonmorph,2041,6812,NULL
1709033827,ce7bc4ca2eda4c00cccf15bd83f05e57,PennController,43,0,main_trials,NULL,PennController,41,_Trial_,Start,1709033713213,a,19,standard_pos_nonmorph,3006,9703,NULL
1709033827,ce7bc4ca2eda4c00cccf15bd83f05e57,PennController,43,0,main_trials,NULL,Scale,rating,Choice,5,1709033716218,a,19,standard_pos_nonmorph,3006,9703,NULL
1709033827,ce7bc4ca2eda4c00cccf15bd83f05e57,PennController,43,0,main_trials,NULL,Scale,rating,Choice,5,1709033722066,a,19,standard_pos_nonmorph,3006,9703,NULL
1709033827,ce7bc4ca2eda4c00cccf15bd83f05e57,PennController,43,0,main_trials,NULL,PennController,41,_Trial_,End,1709033722918,a,19,standard_pos_nonmorph,3006,9703,NULL
1709033827,ce7bc4ca2eda4c00cccf15bd83f05e57,PennController,39,0,main_trials,NULL,PennController,37,_Trial_,Start,1709033722920,a,17,standard_pos_nonmorph,4980,15899,NULL
1709033827,ce7bc4ca2eda4c00cccf15bd83f05e57,PennController,39,0,main_trials,NULL,Scale,rating,Choice,6,1709033727901,a,17,standard_pos_nonmorph,4980,15899,NULL
1709033827,ce7bc4ca2eda4c00cccf15bd83f05e57,PennController,39,0,main_trials,NULL,Scale,rating,Choice,4,1709033737105,a,17,standard_pos_nonmorph,4980,15899,NULL
1709033827,ce7bc4ca2eda4c00cccf15bd83f05e57,PennController,39,0,main_trials,NULL,PennController,37,_Trial_,End,1709033738821,a,17,standard_pos_nonmorph,4980,15899,NULL
1709033827,ce7bc4ca2eda4c00cccf15bd83f05e57,PennController,7,0,main_trials,NULL,PennController,5,_Trial_,Start,1709033738823,a,1,standard_pos_morph,8166,12688,NULL
1709033827,ce7bc4ca2eda4c00cccf15bd83f05e57,PennController,7,0,main_trials,NULL,Scale,rating,Choice,5,1709033746989,a,1,standard_pos_morph,8166,12688,NULL
1709033827,ce7bc4ca2eda4c00cccf15bd83f05e57,PennController,7,0,main_trials,NULL,Scale,rating,Choice,6,1709033748849,a,1,standard_pos_morph,8166,12688,NULL
1709033827,ce7bc4ca2eda4c00cccf15bd83f05e57,PennController,7,0,main_trials,NULL,PennController,5,_Trial_,End,1709033751512,a,1,standard_pos_morph,8166,12688,NULL
1709033827,ce7bc4ca2eda4c00cccf15bd83f05e57,PennController,36,0,main_trials,NULL,PennController,34,_Trial_,Start,1709033751515,a,15,nonstandard_neg_nonmorph,6853,7921,NULL
1709033827,ce7bc4ca2eda4c00cccf15bd83f05e57,PennController,36,0,main_trials,NULL,Scale,rating,Choice,6,1709033758368,a,15,nonstandard_neg_nonmorph,6853,7921,NULL
1709033827,ce7bc4ca2eda4c00cccf15bd83f05e57,PennController,36,0,main_trials,NULL,PennController,34,_Trial_,End,1709033759437,a,15,nonstandard_neg_nonmorph,6853,7921,NULL
1709033827,ce7bc4ca2eda4c00cccf15bd83f05e57,PennController,23,0,main_trials,NULL,PennController,21,_Trial_,Start,1709033759439,a,9,standard_pos_morph,9582,10357,NULL
1709033827,ce7bc4ca2eda4c00cccf15bd83f05e57,PennController,23,0,main_trials,NULL,Scale,rating,Choice,7,1709033769021,a,9,standard_pos_morph,9582,10357,NULL
1709033827,ce7bc4ca2eda4c00cccf15bd83f05e57,PennController,23,0,main_trials,NULL,PennController,21,_Trial_,End,1709033769798,a,9,standard_pos_morph,9582,10357,NULL
1709033827,ce7bc4ca2eda4c00cccf15bd83f05e57,PennController,9,0,main_trials,NULL,PennController,7,_Trial_,Start,1709033769800,a,2,standard_pos_morph,2068,5570,NULL
1709033827,ce7bc4ca2eda4c00cccf15bd83f05e57,PennController,9,0,main_trials,NULL,Scale,rating,Choice,7,1709033771868,a,2,standard_pos_morph,2068,5570,NULL
1709033827,ce7bc4ca2eda4c00cccf15bd83f05e57,PennController,9,0,main_trials,NULL,PennController,7,_Trial_,End,1709033775372,a,2,standard_pos_morph,2068,5570,NULL
1709033827,ce7bc4ca2eda4c00cccf15bd83f05e57,PennController,15,0,main_trials,NULL,PennController,13,_Trial_,Start,1709033775374,a,5,standard_pos_morph,5739,6701,NULL
1709033827,ce7bc4ca2eda4c00cccf15bd83f05e57,PennController,15,0,main_trials,NULL,Scale,rating,Choice,7,1709033781113,a,5,standard_pos_morph,5739,6701,NULL
1709033827,ce7bc4ca2eda4c00cccf15bd83f05e57,PennController,15,0,main_trials,NULL,PennController,13,_Trial_,End,1709033782077,a,5,standard_pos_morph,5739,6701,NULL
1709033827,ce7bc4ca2eda4c00cccf15bd83f05e57,PennController,18,0,main_trials,NULL,PennController,16,_Trial_,Start,1709033782079,a,6,nonstandard_neg_morph,8012,11482,NULL
1709033827,ce7bc4ca2eda4c00cccf15bd83f05e57,PennController,18,0,main_trials,NULL,Scale,rating,Choice,6,1709033790091,a,6,nonstandard_neg_morph,8012,11482,NULL
1709033827,ce7bc4ca2eda4c00cccf15bd83f05e57,PennController,18,0,main_trials,NULL,Scale,rating,Choice,5,1709033791838,a,6,nonstandard_neg_morph,8012,11482,NULL
1709033827,ce7bc4ca2eda4c00cccf15bd83f05e57,PennController,18,0,main_trials,NULL,PennController,16,_Trial_,End,1709033793563,a,6,nonstandard_neg_morph,8012,11482,NULL
1709033827,ce7bc4ca2eda4c00cccf15bd83f05e57,PennController,8,0,main_trials,NULL,PennController,6,_Trial_,Start,1709033793565,a,1,nonstandard_neg_morph,10348,12433,NULL
1709033827,ce7bc4ca2eda4c00cccf15bd83f05e57,PennController,8,0,main_trials,NULL,Scale,rating,Choice,5,1709033803912,a,1,nonstandard_neg_morph,10348,12433,NULL
1709033827,ce7bc4ca2eda4c00cccf15bd83f05e57,PennController,8,0,main_trials,NULL,Scale,rating,Choice,4,1709033805215,a,1,nonstandard_neg_morph,10348,12433,NULL
1709033827,ce7bc4ca2eda4c00cccf15bd83f05e57,PennController,8,0,main_trials,NULL,PennController,6,_Trial_,End,1709033806001,a,1,nonstandard_neg_morph,10348,12433,NULL
1709033827,ce7bc4ca2eda4c00cccf15bd83f05e57,PennController,21,0,main_trials,NULL,PennController,19,_Trial_,Start,1709033806003,a,8,standard_pos_morph,3053,4154,NULL
1709033827,ce7bc4ca2eda4c00cccf15bd83f05e57,PennController,21,0,main_trials,NULL,Scale,rating,Choice,7,1709033809055,a,8,standard_pos_morph,3053,4154,NULL
1709033827,ce7bc4ca2eda4c00cccf15bd83f05e57,PennController,21,0,main_trials,NULL,PennController,19,_Trial_,End,1709033810158,a,8,standard_pos_morph,3053,4154,NULL
1709033827,ce7bc4ca2eda4c00cccf15bd83f05e57,PennController,25,0,main_trials,NULL,PennController,23,_Trial_,Start,1709033810160,a,10,standard_pos_morph,2042,2843,NULL
1709033827,ce7bc4ca2eda4c00cccf15bd83f05e57,PennController,25,0,main_trials,NULL,Scale,rating,Choice,7,1709033812202,a,10,standard_pos_morph,2042,2843,NULL
1709033827,ce7bc4ca2eda4c00cccf15bd83f05e57,PennController,25,0,main_trials,NULL,PennController,23,_Trial_,End,1709033813005,a,10,standard_pos_morph,2042,2843,NULL
1709033827,ce7bc4ca2eda4c00cccf15bd83f05e57,PennController,10,0,main_trials,NULL,PennController,8,_Trial_,Start,1709033813006,a,2,nonstandard_neg_morph,4486,5796,NULL
1709033827,ce7bc4ca2eda4c00cccf15bd83f05e57,PennController,10,0,main_trials,NULL,Scale,rating,Choice,5,1709033817492,a,2,nonstandard_neg_morph,4486,5796,NULL
1709033827,ce7bc4ca2eda4c00cccf15bd83f05e57,PennController,10,0,main_trials,NULL,PennController,8,_Trial_,End,1709033818804,a,2,nonstandard_neg_morph,4486,5796,NULL
# 13. Comments.
1709033827,ce7bc4ca2eda4c00cccf15bd83f05e57,PennController,4,0,comments,NULL,PennController,2,_Trial_,Start,1709033818806,NULL
1709033827,ce7bc4ca2eda4c00cccf15bd83f05e57,PennController,4,0,comments,NULL,PennController,2,_Trial_,End,1709033821368,NULL
1709033827,ce7bc4ca2eda4c00cccf15bd83f05e57,PennController,4,0,comments,NULL,Html,comments,comments,,1709033821368,text input
1709033827,ce7bc4ca2eda4c00cccf15bd83f05e57,PennController,5,0,prolificID,NULL,PennController,3,_Trial_,Start,1709033821369,NULL
1709033827,ce7bc4ca2eda4c00cccf15bd83f05e57,PennController,5,0,prolificID,NULL,PennController,3,_Trial_,End,1709033825427,NULL
1709033827,ce7bc4ca2eda4c00cccf15bd83f05e57,PennController,5,0,prolificID,NULL,TextInput,prolificID,Final,65ddb419cd6dd91fdbe6dbdc,1709033825427,NULL
#
# Results on Tue, 27 Feb 2024 11:42:11 GMT
# USER AGENT: Mozilla/5.0 (Windows NT 10.0; Win64; x64; rv:123.0) Gecko/20100101 Firefox/123.0
# Design number was non-random = 1
#
# Columns below this comment are as follows:
# 1. Results reception time.
# 2. MD5 hash of participant's IP address.
# 3. Controller name.
# 4. Order number of item.
# 5. Inner element number.
# 6. Label.
# 7. Latin Square Group.
# 8. PennElementType.
# 9. PennElementName.
# 10. Parameter.
# 11. Value.
# 12. EventTime.
# 13. Comments.
1709034131,18866da2be8bf6ce7cf1fb9d8e94aa9a,PennController,2,0,consent_demographics,NULL,PennController,0,_Trial_,Start,1709033436346,NULL
1709034131,18866da2be8bf6ce7cf1fb9d8e94aa9a,PennController,2,0,consent_demographics,NULL,Html,consent_demographics,age,28,1709033453371,text input
1709034131,18866da2be8bf6ce7cf1fb9d8e94aa9a,PennController,2,0,consent_demographics,NULL,Html,consent_demographics,lang,English,1709033453371,text input
1709034131,18866da2be8bf6ce7cf1fb9d8e94aa9a,PennController,2,0,consent_demographics,NULL,Html,consent_demographics,consent,on,1709033453371,radio button
1709034131,18866da2be8bf6ce7cf1fb9d8e94aa9a,PennController,2,0,consent_demographics,NULL,Html,consent_demographics,Gender,Male,1709033453371,radio button
1709034131,18866da2be8bf6ce7cf1fb9d8e94aa9a,PennController,2,0,consent_demographics,NULL,PennController,0,_Trial_,End,1709033453372,NULL
1709034131,18866da2be8bf6ce7cf1fb9d8e94aa9a,PennController,3,0,instr_example,NULL,PennController,1,_Trial_,Start,1709033453374,NULL
1709034131,18866da2be8bf6ce7cf1fb9d8e94aa9a,PennController,3,0,instr_example,NULL,Html,instr_example,practice,5,1709033512123,radio button
1709034131,18866da2be8bf6ce7cf1fb9d8e94aa9a,PennController,3,0,instr_example,NULL,PennController,1,_Trial_,End,1709033512123,NULL
# 13. group.
# 14. item_id.
# 15. condition.
# 16. RT_firstChoice.
# 17. RT_secondChoice.
# 18. Comments.
1709034131,18866da2be8bf6ce7cf1fb9d8e94aa9a,PennController,19,0,main_trials,NULL,PennController,17,_Trial_,Start,1709033512126,b,7,nonstandard_pos_morph,23296,25721,NULL
1709034131,18866da2be8bf6ce7cf1fb9d8e94aa9a,PennController,19,0,main_trials,NULL,Scale,rating,Choice,4,1709033535627,b,7,nonstandard_pos_morph,23296,25721,NULL
1709034131,18866da2be8bf6ce7cf1fb9d8e94aa9a,PennController,19,0,main_trials,NULL,PennController,17,_Trial_,End,1709033538053,b,7,nonstandard_pos_morph,23296,25721,NULL
1709034131,18866da2be8bf6ce7cf1fb9d8e94aa9a,PennController,11,0,main_trials,NULL,PennController,9,_Trial_,Start,1709033538055,b,3,nonstandard_pos_morph,21436,22322,NULL
1709034131,18866da2be8bf6ce7cf1fb9d8e94aa9a,PennController,11,0,main_trials,NULL,Scale,rating,Choice,4,1709033559491,b,3,nonstandard_pos_morph,21436,22322,NULL
1709034131,18866da2be8bf6ce7cf1fb9d8e94aa9a,PennController,11,0,main_trials,NULL,PennController,9,_Trial_,End,1709033560377,b,3,nonstandard_pos_morph,21436,22322,NULL
1709034131,18866da2be8bf6ce7cf1fb9d8e94aa9a,PennController,27,0,main_trials,NULL,PennController,25,_Trial_,Start,1709033560378,b,11,nonstandard_pos_morph,14022,15280,NULL
1709034131,18866da2be8bf6ce7cf1fb9d8e94aa9a,PennController,27,0,main_trials,NULL,Scale,rating,Choice,3,1709033574400,b,11,nonstandard_pos_morph,14022,15280,NULL
1709034131,18866da2be8bf6ce7cf1fb9d8e94aa9a,PennController,27,0,main_trials,NULL,PennController,25,_Trial_,End,1709033575659,b,11,nonstandard_pos_morph,14022,15280,NULL
1709034131,18866da2be8bf6ce7cf1fb9d8e94aa9a,PennController,9,0,main_trials,NULL,PennController,7,_Trial_,Start,1709033575660,b,2,nonstandard_pos_morph,12534,17321,NULL
1709034131,18866da2be8bf6ce7cf1fb9d8e94aa9a,PennController,9,0,main_trials,NULL,Scale,rating,Choice,5,1709033588194,b,2,nonstandard_pos_morph,12534,17321,NULL
1709034131,18866da2be8bf6ce7cf1fb9d8e94aa9a,PennController,9,0,main_trials,NULL,PennController,7,_Trial_,End,1709033592982,b,2,nonstandard_pos_morph,12534,17321,NULL
1709034131,18866da2be8bf6ce7cf1fb9d8e94aa9a,PennController,26,0,main_trials,NULL,PennController,24,_Trial_,Start,1709033592983,b,10,standard_neg_morph,9796,14907,NULL
1709034131,18866da2be8bf6ce7cf1fb9d8e94aa9a,PennController,26,0,main_trials,NULL,Scale,rating,Choice,7,1709033602778,b,10,standard_neg_morph,9796,14907,NULL
1709034131,18866da2be8bf6ce7cf1fb9d8e94aa9a,PennController,26,0,main_trials,NULL,Scale,rating,Choice,6,1709033605104,b,10,standard_neg_morph,9796,14907,NULL
1709034131,18866da2be8bf6ce7cf1fb9d8e94aa9a,PennController,26,0,main_trials,NULL,PennController,24,_Trial_,End,1709033607890,b,10,standard_neg_morph,9796,14907,NULL
1709034131,18866da2be8bf6ce7cf1fb9d8e94aa9a,PennController,46,0,main_trials,NULL,PennController,44,_Trial_,Start,1709033607891,b,20,standard_neg_nonmorph,12719,16285,NULL
1709034131,18866da2be8bf6ce7cf1fb9d8e94aa9a,PennController,46,0,main_trials,NULL,Scale,rating,Choice,5,1709033620611,b,20,standard_neg_nonmorph,12719,16285,NULL
1709034131,18866da2be8bf6ce7cf1fb9d8e94aa9a,PennController,46,0,main_trials,NULL,PennController,44,_Trial_,End,1709033624178,b,20,standard_neg_nonmorph,12719,16285,NULL
1709034131,18866da2be8bf6ce7cf1fb9d8e94aa9a,PennController,29,0,main_trials,NULL,PennController,27,_Trial_,Start,1709033624179,b,12,nonstandard_pos_nonmorph,10421,16962,NULL
1709034131,18866da2be8bf6ce7cf1fb9d8e94aa9a,PennController,29,0,main_trials,NULL,Scale,rating,Choice,5,1709033634599,b,12,nonstandard_pos_nonmorph,10421,16962,NULL
1709034131,18866da2be8bf6ce7cf1fb9d8e94aa9a,PennController,29,0,main_trials,NULL,PennController,27,_Trial_,End,1709033641141,b,12,nonstandard_pos_nonmorph,10421,16962,NULL
1709034131,18866da2be8bf6ce7cf1fb9d8e94aa9a,PennController,7,0,main_trials,NULL,PennController,5,_Trial_,Start,1709033641142,b,1,nonstandard_pos_morph,24680,30069,NULL
1709034131,18866da2be8bf6ce7cf1fb9d8e94aa9a,PennController,7,0,main_trials,NULL,Scale,rating,Choice,4,1709033665823,b,1,nonstandard_pos_morph,24680,30069,NULL
1709034131,18866da2be8bf6ce7cf1fb9d8e94aa9a,PennController,7,0,main_trials,NULL,PennController,5,_Trial_,End,1709033671212,b,1,nonstandard_pos_morph,24680,30069,NULL
1709034131,18866da2be8bf6ce7cf1fb9d8e94aa9a,PennController,24,0,main_trials,NULL,PennController,22,_Trial_,Start,1709033671213,b,9,standard_neg_morph,10839,11770,NULL
1709034131,18866da2be8bf6ce7cf1fb9d8e94aa9a,PennController,24,0,main_trials,NULL,Scale,rating,Choice,6,1709033682052,b,9,standard_neg_morph,10839,11770,NULL
1709034131,18866da2be8bf6ce7cf1fb9d8e94aa9a,PennController,24,0,main_trials,NULL,PennController,22,_Trial_,End,1709033682983,b,9,standard_neg_morph,10839,11770,NULL
1709034131,18866da2be8bf6ce7cf1fb9d8e94aa9a,PennController,55,0,main_trials,NULL,PennController,53,_Trial_,Start,1709033682984,b,f5,pos_morph,8812,9550,NULL
1709034131,18866da2be8bf6ce7cf1fb9d8e94aa9a,PennController,55,0,main_trials,NULL,Scale,rating,Choice,1,1709033691796,b,f5,pos_morph,8812,9550,NULL
1709034131,18866da2be8bf6ce7cf1fb9d8e94aa9a,PennController,55,0,main_trials,NULL,PennController,53,_Trial_,End,1709033692534,b,f5,pos_morph,8812,9550,NULL
1709034131,18866da2be8bf6ce7cf1fb9d8e94aa9a,PennController,18,0,main_trials,NULL,PennController,16,_Trial_,Start,1709033692535,b,6,standard_neg_morph,15588,21728,NULL
1709034131,18866da2be8bf6ce7cf1fb9d8e94aa9a,PennController,18,0,main_trials,NULL,Scale,rating,Choice,2,1709033708123,b,6,standard_neg_morph,15588,21728,NULL
1709034131,18866da2be8bf6ce7cf1fb9d8e94aa9a,PennController,18,0,main_trials,NULL,Scale,rating,Choice,6,1709033712637,b,6,standard_neg_morph,15588,21728,NULL
1709034131,18866da2be8bf6ce7cf1fb9d8e94aa9a,PennController,18,0,main_trials,NULL,PennController,16,_Trial_,End,1709033714264,b,6,standard_neg_morph,15588,21728,NULL
1709034131,18866da2be8bf6ce7cf1fb9d8e94aa9a,PennController,21,0,main_trials,NULL,PennController,19,_Trial_,Start,1709033714265,b,8,nonstandard_pos_morph,14058,17269,NULL
1709034131,18866da2be8bf6ce7cf1fb9d8e94aa9a,PennController,21,0,main_trials,NULL,Scale,rating,Choice,4,1709033728323,b,8,nonstandard_pos_morph,14058,17269,NULL
1709034131,18866da2be8bf6ce7cf1fb9d8e94aa9a,PennController,21,0,main_trials,NULL,Scale,rating,Choice,3,1709033728888,b,8,nonstandard_pos_morph,14058,17269,NULL
1709034131,18866da2be8bf6ce7cf1fb9d8e94aa9a,PennController,21,0,main_trials,NULL,PennController,19,_Trial_,End,1709033731534,b,8,nonstandard_pos_morph,14058,17269,NULL
1709034131,18866da2be8bf6ce7cf1fb9d8e94aa9a,PennController,36,0,main_trials,NULL,PennController,34,_Trial_,Start,1709033731535,b,15,standard_neg_nonmorph,17929,23435,NULL
1709034131,18866da2be8bf6ce7cf1fb9d8e94aa9a,PennController,36,0,main_trials,NULL,Scale,rating,Choice,6,1709033749464,b,15,standard_neg_nonmorph,17929,23435,NULL
1709034131,18866da2be8bf6ce7cf1fb9d8e94aa9a,PennController,36,0,main_trials,NULL,PennController,34,_Trial_,End,1709033754971,b,15,standard_neg_nonmorph,17929,23435,NULL
1709034131,18866da2be8bf6ce7cf1fb9d8e94aa9a,PennController,56,0,main_trials,NULL,PennController,54,_Trial_,Start,1709033754971,b,f5,neg_morph,7135,10520,NULL
1709034131,18866da2be8bf6ce7cf1fb9d8e94aa9a,PennController,56,0,main_trials,NULL,Scale,rating,Choice,1,1709033762106,b,f5,neg_morph,7135,10520,NULL
1709034131,18866da2be8bf6ce7cf1fb9d8e94aa9a,PennController,56,0,main_trials,NULL,PennController,54,_Trial_,End,1709033765492,b,f5,neg_morph,7135,10520,NULL
1709034131,18866da2be8bf6ce7cf1fb9d8e94aa9a,PennController,16,0,main_trials,NULL,PennController,14,_Trial_,Start,1709033765492,b,5,standard_neg_morph,10431,11767,NULL
1709034131,18866da2be8bf6ce7cf1fb9d8e94aa9a,PennController,16,0,main_trials,NULL,Scale,rating,Choice,7,1709033775923,b,5,standard_neg_morph,10431,11767,NULL
1709034131,18866da2be8bf6ce7cf1fb9d8e94aa9a,PennController,16,0,main_trials,NULL,PennController,14,_Trial_,End,1709033777261,b,5,standard_neg_morph,10431,11767,NULL
1709034131,18866da2be8bf6ce7cf1fb9d8e94aa9a,PennController,10,0,main_trials,NULL,PennController,8,_Trial_,Start,1709033777261,b,2,standard_neg_morph,7405,10279,NULL
1709034131,18866da2be8bf6ce7cf1fb9d8e94aa9a,PennController,10,0,main_trials,NULL,Scale,rating,Choice,7,1709033784666,b,2,standard_neg_morph,7405,10279,NULL
1709034131,18866da2be8bf6ce7cf1fb9d8e94aa9a,PennController,10,0,main_trials,NULL,PennController,8,_Trial_,End,1709033787540,b,2,standard_neg_morph,7405,10279,NULL
1709034131,18866da2be8bf6ce7cf1fb9d8e94aa9a,PennController,8,0,main_trials,NULL,PennController,6,_Trial_,Start,1709033787541,b,1,standard_neg_morph,11344,12071,NULL
1709034131,18866da2be8bf6ce7cf1fb9d8e94aa9a,PennController,8,0,main_trials,NULL,Scale,rating,Choice,6,1709033798885,b,1,standard_neg_morph,11344,12071,NULL
1709034131,18866da2be8bf6ce7cf1fb9d8e94aa9a,PennController,8,0,main_trials,NULL,PennController,6,_Trial_,End,1709033799613,b,1,standard_neg_morph,11344,12071,NULL
1709034131,18866da2be8bf6ce7cf1fb9d8e94aa9a,PennController,14,0,main_trials,NULL,PennController,12,_Trial_,Start,1709033799613,b,4,standard_neg_morph,7892,10532,NULL
1709034131,18866da2be8bf6ce7cf1fb9d8e94aa9a,PennController,14,0,main_trials,NULL,Scale,rating,Choice,7,1709033807505,b,4,standard_neg_morph,7892,10532,NULL
1709034131,18866da2be8bf6ce7cf1fb9d8e94aa9a,PennController,14,0,main_trials,NULL,PennController,12,_Trial_,End,1709033810146,b,4,standard_neg_morph,7892,10532,NULL
1709034131,18866da2be8bf6ce7cf1fb9d8e94aa9a,PennController,51,0,main_trials,NULL,PennController,49,_Trial_,Start,1709033810146,b,f3,neg_nonmorph,6649,8620,NULL
1709034131,18866da2be8bf6ce7cf1fb9d8e94aa9a,PennController,51,0,main_trials,NULL,Scale,rating,Choice,1,1709033816795,b,f3,neg_nonmorph,6649,8620,NULL
1709034131,18866da2be8bf6ce7cf1fb9d8e94aa9a,PennController,51,0,main_trials,NULL,PennController,49,_Trial_,End,1709033818767,b,f3,neg_nonmorph,6649,8620,NULL
1709034131,18866da2be8bf6ce7cf1fb9d8e94aa9a,PennController,30,0,main_trials,NULL,PennController,28,_Trial_,Start,1709033818768,b,12,standard_neg_nonmorph,7274,8233,NULL
1709034131,18866da2be8bf6ce7cf1fb9d8e94aa9a,PennController,30,0,main_trials,NULL,Scale,rating,Choice,6,1709033826042,b,12,standard_neg_nonmorph,7274,8233,NULL
1709034131,18866da2be8bf6ce7cf1fb9d8e94aa9a,PennController,30,0,main_trials,NULL,PennController,28,_Trial_,End,1709033827002,b,12,standard_neg_nonmorph,7274,8233,NULL
1709034131,18866da2be8bf6ce7cf1fb9d8e94aa9a,PennController,34,0,main_trials,NULL,PennController,32,_Trial_,Start,1709033827002,b,14,standard_neg_nonmorph,7588,10065,NULL
1709034131,18866da2be8bf6ce7cf1fb9d8e94aa9a,PennController,34,0,main_trials,NULL,Scale,rating,Choice,7,1709033834590,b,14,standard_neg_nonmorph,7588,10065,NULL
1709034131,18866da2be8bf6ce7cf1fb9d8e94aa9a,PennController,34,0,main_trials,NULL,Scale,rating,Choice,6,1709033836122,b,14,standard_neg_nonmorph,7588,10065,NULL
1709034131,18866da2be8bf6ce7cf1fb9d8e94aa9a,PennController,34,0,main_trials,NULL,PennController,32,_Trial_,End,1709033837067,b,14,standard_neg_nonmorph,7588,10065,NULL
1709034131,18866da2be8bf6ce7cf1fb9d8e94aa9a,PennController,38,0,main_trials,NULL,PennController,36,_Trial_,Start,1709033837068,b,16,standard_neg_nonmorph,10292,13199,NULL
1709034131,18866da2be8bf6ce7cf1fb9d8e94aa9a,PennController,38,0,main_trials,NULL,Scale,rating,Choice,6,1709033847359,b,16,standard_neg_nonmorph,10292,13199,NULL
1709034131,18866da2be8bf6ce7cf1fb9d8e94aa9a,PennController,38,0,main_trials,NULL,Scale,rating,Choice,7,1709033848044,b,16,standard_neg_nonmorph,10292,13199,NULL
1709034131,18866da2be8bf6ce7cf1fb9d8e94aa9a,PennController,38,0,main_trials,NULL,PennController,36,_Trial_,End,1709033850268,b,16,standard_neg_nonmorph,10292,13199,NULL
1709034131,18866da2be8bf6ce7cf1fb9d8e94aa9a,PennController,35,0,main_trials,NULL,PennController,33,_Trial_,Start,1709033850269,b,15,nonstandard_pos_nonmorph,12941,19645,NULL
1709034131,18866da2be8bf6ce7cf1fb9d8e94aa9a,PennController,35,0,main_trials,NULL,Scale,rating,Choice,5,1709033863210,b,15,nonstandard_pos_nonmorph,12941,19645,NULL
1709034131,18866da2be8bf6ce7cf1fb9d8e94aa9a,PennController,35,0,main_trials,NULL,Scale,rating,Choice,2,1709033869178,b,15,nonstandard_pos_nonmorph,12941,19645,NULL
1709034131,18866da2be8bf6ce7cf1fb9d8e94aa9a,PennController,35,0,main_trials,NULL,PennController,33,_Trial_,End,1709033869914,b,15,nonstandard_pos_nonmorph,12941,19645,NULL
1709034131,18866da2be8bf6ce7cf1fb9d8e94aa9a,PennController,43,0,main_trials,NULL,PennController,41,_Trial_,Start,1709033869915,b,19,nonstandard_pos_nonmorph,11945,22248,NULL
1709034131,18866da2be8bf6ce7cf1fb9d8e94aa9a,PennController,43,0,main_trials,NULL,Scale,rating,Choice,3,1709033881860,b,19,nonstandard_pos_nonmorph,11945,22248,NULL
1709034131,18866da2be8bf6ce7cf1fb9d8e94aa9a,PennController,43,0,main_trials,NULL,Scale,rating,Choice,1,1709033886568,b,19,nonstandard_pos_nonmorph,11945,22248,NULL
1709034131,18866da2be8bf6ce7cf1fb9d8e94aa9a,PennController,43,0,main_trials,NULL,PennController,41,_Trial_,End,1709033892163,b,19,nonstandard_pos_nonmorph,11945,22248,NULL
1709034131,18866da2be8bf6ce7cf1fb9d8e94aa9a,PennController,12,0,main_trials,NULL,PennController,10,_Trial_,Start,1709033892164,b,3,standard_neg_morph,9196,10034,NULL
1709034131,18866da2be8bf6ce7cf1fb9d8e94aa9a,PennController,12,0,main_trials,NULL,Scale,rating,Choice,1,1709033901360,b,3,standard_neg_morph,9196,10034,NULL
1709034131,18866da2be8bf6ce7cf1fb9d8e94aa9a,PennController,12,0,main_trials,NULL,PennController,10,_Trial_,End,1709033902199,b,3,standard_neg_morph,9196,10034,NULL
1709034131,18866da2be8bf6ce7cf1fb9d8e94aa9a,PennController,50,0,main_trials,NULL,PennController,48,_Trial_,Start,1709033902200,b,f2,neg_nonmorph,4341,7015,NULL
1709034131,18866da2be8bf6ce7cf1fb9d8e94aa9a,PennController,50,0,main_trials,NULL,Scale,rating,Choice,1,1709033906541,b,f2,neg_nonmorph,4341,7015,NULL
1709034131,18866da2be8bf6ce7cf1fb9d8e94aa9a,PennController,50,0,main_trials,NULL,PennController,48,_Trial_,End,1709033909216,b,f2,neg_nonmorph,4341,7015,NULL
1709034131,18866da2be8bf6ce7cf1fb9d8e94aa9a,PennController,54,0,main_trials,NULL,PennController,52,_Trial_,Start,1709033909217,b,f4,neg_nonmorph,4247,5556,NULL
1709034131,18866da2be8bf6ce7cf1fb9d8e94aa9a,PennController,54,0,main_trials,NULL,Scale,rating,Choice,1,1709033913464,b,f4,neg_nonmorph,4247,5556,NULL
1709034131,18866da2be8bf6ce7cf1fb9d8e94aa9a,PennController,54,0,main_trials,NULL,PennController,52,_Trial_,End,1709033914774,b,f4,neg_nonmorph,4247,5556,NULL
1709034131,18866da2be8bf6ce7cf1fb9d8e94aa9a,PennController,48,0,main_trials,NULL,PennController,46,_Trial_,Start,1709033914774,b,f1,neg_nonmorph,3618,4279,NULL
1709034131,18866da2be8bf6ce7cf1fb9d8e94aa9a,PennController,48,0,main_trials,NULL,Scale,rating,Choice,1,1709033918392,b,f1,neg_nonmorph,3618,4279,NULL
1709034131,18866da2be8bf6ce7cf1fb9d8e94aa9a,PennController,48,0,main_trials,NULL,PennController,46,_Trial_,End,1709033919054,b,f1,neg_nonmorph,3618,4279,NULL
1709034131,18866da2be8bf6ce7cf1fb9d8e94aa9a,PennController,44,0,main_trials,NULL,PennController,42,_Trial_,Start,1709033919054,b,19,standard_neg_nonmorph,6792,7566,NULL
1709034131,18866da2be8bf6ce7cf1fb9d8e94aa9a,PennController,44,0,main_trials,NULL,Scale,rating,Choice,6,1709033925847,b,19,standard_neg_nonmorph,6792,7566,NULL
1709034131,18866da2be8bf6ce7cf1fb9d8e94aa9a,PennController,44,0,main_trials,NULL,PennController,42,_Trial_,End,1709033926622,b,19,standard_neg_nonmorph,6792,7566,NULL
1709034131,18866da2be8bf6ce7cf1fb9d8e94aa9a,PennController,42,0,main_trials,NULL,PennController,40,_Trial_,Start,1709033926622,b,18,standard_neg_nonmorph,8118,12792,NULL
1709034131,18866da2be8bf6ce7cf1fb9d8e94aa9a,PennController,42,0,main_trials,NULL,Scale,rating,Choice,6,1709033934739,b,18,standard_neg_nonmorph,8118,12792,NULL
1709034131,18866da2be8bf6ce7cf1fb9d8e94aa9a,PennController,42,0,main_trials,NULL,PennController,40,_Trial_,End,1709033939415,b,18,standard_neg_nonmorph,8118,12792,NULL
1709034131,18866da2be8bf6ce7cf1fb9d8e94aa9a,PennController,45,0,main_trials,NULL,PennController,43,_Trial_,Start,1709033939415,b,20,nonstandard_pos_nonmorph,9650,14627,NULL
1709034131,18866da2be8bf6ce7cf1fb9d8e94aa9a,PennController,45,0,main_trials,NULL,Scale,rating,Choice,3,1709033949065,b,20,nonstandard_pos_nonmorph,9650,14627,NULL
1709034131,18866da2be8bf6ce7cf1fb9d8e94aa9a,PennController,45,0,main_trials,NULL,PennController,43,_Trial_,End,1709033954042,b,20,nonstandard_pos_nonmorph,9650,14627,NULL
1709034131,18866da2be8bf6ce7cf1fb9d8e94aa9a,PennController,15,0,main_trials,NULL,PennController,13,_Trial_,Start,1709033954043,b,5,nonstandard_pos_morph,6923,7578,NULL
1709034131,18866da2be8bf6ce7cf1fb9d8e94aa9a,PennController,15,0,main_trials,NULL,Scale,rating,Choice,3,1709033960966,b,5,nonstandard_pos_morph,6923,7578,NULL
1709034131,18866da2be8bf6ce7cf1fb9d8e94aa9a,PennController,15,0,main_trials,NULL,PennController,13,_Trial_,End,1709033961622,b,5,nonstandard_pos_morph,6923,7578,NULL
1709034131,18866da2be8bf6ce7cf1fb9d8e94aa9a,PennController,31,0,main_trials,NULL,PennController,29,_Trial_,Start,1709033961622,b,13,nonstandard_pos_nonmorph,7634,13270,NULL
1709034131,18866da2be8bf6ce7cf1fb9d8e94aa9a,PennController,31,0,main_trials,NULL,Scale,rating,Choice,3,1709033969257,b,13,nonstandard_pos_nonmorph,7634,13270,NULL
1709034131,18866da2be8bf6ce7cf1fb9d8e94aa9a,PennController,31,0,main_trials,NULL,PennController,29,_Trial_,End,1709033974894,b,13,nonstandard_pos_nonmorph,7634,13270,NULL
1709034131,18866da2be8bf6ce7cf1fb9d8e94aa9a,PennController,37,0,main_trials,NULL,PennController,35,_Trial_,Start,1709033974894,b,16,nonstandard_pos_nonmorph,9291,14215,NULL
1709034131,18866da2be8bf6ce7cf1fb9d8e94aa9a,PennController,37,0,main_trials,NULL,Scale,rating,Choice,6,1709033984185,b,16,nonstandard_pos_nonmorph,9291,14215,NULL
1709034131,18866da2be8bf6ce7cf1fb9d8e94aa9a,PennController,37,0,main_trials,NULL,PennController,35,_Trial_,End,1709033989109,b,16,nonstandard_pos_nonmorph,9291,14215,NULL
1709034131,18866da2be8bf6ce7cf1fb9d8e94aa9a,PennController,49,0,main_trials,NULL,PennController,47,_Trial_,Start,1709033989110,b,f2,pos_nonmorph,3233,3890,NULL
1709034131,18866da2be8bf6ce7cf1fb9d8e94aa9a,PennController,49,0,main_trials,NULL,Scale,rating,Choice,1,1709033992343,b,f2,pos_nonmorph,3233,3890,NULL
1709034131,18866da2be8bf6ce7cf1fb9d8e94aa9a,PennController,49,0,main_trials,NULL,PennController,47,_Trial_,End,1709033993001,b,f2,pos_nonmorph,3233,3890,NULL
1709034131,18866da2be8bf6ce7cf1fb9d8e94aa9a,PennController,23,0,main_trials,NULL,PennController,21,_Trial_,Start,1709033993002,b,9,nonstandard_pos_morph,10139,10869,NULL
1709034131,18866da2be8bf6ce7cf1fb9d8e94aa9a,PennController,23,0,main_trials,NULL,Scale,rating,Choice,3,1709034003141,b,9,nonstandard_pos_morph,10139,10869,NULL
1709034131,18866da2be8bf6ce7cf1fb9d8e94aa9a,PennController,23,0,main_trials,NULL,PennController,21,_Trial_,End,1709034003872,b,9,nonstandard_pos_morph,10139,10869,NULL
1709034131,18866da2be8bf6ce7cf1fb9d8e94aa9a,PennController,32,0,main_trials,NULL,PennController,30,_Trial_,Start,1709034003872,b,13,standard_neg_nonmorph,7249,7821,NULL
1709034131,18866da2be8bf6ce7cf1fb9d8e94aa9a,PennController,32,0,main_trials,NULL,Scale,rating,Choice,6,1709034011121,b,13,standard_neg_nonmorph,7249,7821,NULL
1709034131,18866da2be8bf6ce7cf1fb9d8e94aa9a,PennController,32,0,main_trials,NULL,PennController,30,_Trial_,End,1709034011694,b,13,standard_neg_nonmorph,7249,7821,NULL
1709034131,18866da2be8bf6ce7cf1fb9d8e94aa9a,PennController,47,0,main_trials,NULL,PennController,45,_Trial_,Start,1709034011694,b,f1,pos_nonmorph,3549,4449,NULL
1709034131,18866da2be8bf6ce7cf1fb9d8e94aa9a,PennController,47,0,main_trials,NULL,Scale,rating,Choice,1,1709034015244,b,f1,pos_nonmorph,3549,4449,NULL
1709034131,18866da2be8bf6ce7cf1fb9d8e94aa9a,PennController,47,0,main_trials,NULL,PennController,45,_Trial_,End,1709034016144,b,f1,pos_nonmorph,3549,4449,NULL
1709034131,18866da2be8bf6ce7cf1fb9d8e94aa9a,PennController,25,0,main_trials,NULL,PennController,23,_Trial_,Start,1709034016145,b,10,nonstandard_pos_morph,7052,7780,NULL
1709034131,18866da2be8bf6ce7cf1fb9d8e94aa9a,PennController,25,0,main_trials,NULL,Scale,rating,Choice,3,1709034023197,b,10,nonstandard_pos_morph,7052,7780,NULL
1709034131,18866da2be8bf6ce7cf1fb9d8e94aa9a,PennController,25,0,main_trials,NULL,PennController,23,_Trial_,End,1709034023925,b,10,nonstandard_pos_morph,7052,7780,NULL
1709034131,18866da2be8bf6ce7cf1fb9d8e94aa9a,PennController,22,0,main_trials,NULL,PennController,20,_Trial_,Start,1709034023926,b,8,standard_neg_morph,5049,8408,NULL
1709034131,18866da2be8bf6ce7cf1fb9d8e94aa9a,PennController,22,0,main_trials,NULL,Scale,rating,Choice,6,1709034028976,b,8,standard_neg_morph,5049,8408,NULL
1709034131,18866da2be8bf6ce7cf1fb9d8e94aa9a,PennController,22,0,main_trials,NULL,PennController,20,_Trial_,End,1709034032336,b,8,standard_neg_morph,5049,8408,NULL
1709034131,18866da2be8bf6ce7cf1fb9d8e94aa9a,PennController,28,0,main_trials,NULL,PennController,26,_Trial_,Start,1709034032336,b,11,standard_neg_morph,9557,10296,NULL
1709034131,18866da2be8bf6ce7cf1fb9d8e94aa9a,PennController,28,0,main_trials,NULL,Scale,rating,Choice,7,1709034041894,b,11,standard_neg_morph,9557,10296,NULL
1709034131,18866da2be8bf6ce7cf1fb9d8e94aa9a,PennController,28,0,main_trials,NULL,PennController,26,_Trial_,End,1709034042634,b,11,standard_neg_morph,9557,10296,NULL
1709034131,18866da2be8bf6ce7cf1fb9d8e94aa9a,PennController,39,0,main_trials,NULL,PennController,37,_Trial_,Start,1709034042634,b,17,nonstandard_pos_nonmorph,14082,15176,NULL
1709034131,18866da2be8bf6ce7cf1fb9d8e94aa9a,PennController,39,0,main_trials,NULL,Scale,rating,Choice,4,1709034056716,b,17,nonstandard_pos_nonmorph,14082,15176,NULL
1709034131,18866da2be8bf6ce7cf1fb9d8e94aa9a,PennController,39,0,main_trials,NULL,PennController,37,_Trial_,End,1709034057811,b,17,nonstandard_pos_nonmorph,14082,15176,NULL
1709034131,18866da2be8bf6ce7cf1fb9d8e94aa9a,PennController,52,0,main_trials,NULL,PennController,50,_Trial_,Start,1709034057812,b,f3,pos_nonmorph,3989,4539,NULL
1709034131,18866da2be8bf6ce7cf1fb9d8e94aa9a,PennController,52,0,main_trials,NULL,Scale,rating,Choice,1,1709034061801,b,f3,pos_nonmorph,3989,4539,NULL
1709034131,18866da2be8bf6ce7cf1fb9d8e94aa9a,PennController,52,0,main_trials,NULL,PennController,50,_Trial_,End,1709034062352,b,f3,pos_nonmorph,3989,4539,NULL
1709034131,18866da2be8bf6ce7cf1fb9d8e94aa9a,PennController,40,0,main_trials,NULL,PennController,38,_Trial_,Start,1709034062352,b,17,standard_neg_nonmorph,8437,10293,NULL
1709034131,18866da2be8bf6ce7cf1fb9d8e94aa9a,PennController,40,0,main_trials,NULL,Scale,rating,Choice,7,1709034070789,b,17,standard_neg_nonmorph,8437,10293,NULL
1709034131,18866da2be8bf6ce7cf1fb9d8e94aa9a,PennController,40,0,main_trials,NULL,PennController,38,_Trial_,End,1709034072647,b,17,standard_neg_nonmorph,8437,10293,NULL
1709034131,18866da2be8bf6ce7cf1fb9d8e94aa9a,PennController,20,0,main_trials,NULL,PennController,18,_Trial_,Start,1709034072648,b,7,standard_neg_morph,5311,6079,NULL
1709034131,18866da2be8bf6ce7cf1fb9d8e94aa9a,PennController,20,0,main_trials,NULL,Scale,rating,Choice,7,1709034077959,b,7,standard_neg_morph,5311,6079,NULL
1709034131,18866da2be8bf6ce7cf1fb9d8e94aa9a,PennController,20,0,main_trials,NULL,PennController,18,_Trial_,End,1709034078728,b,7,standard_neg_morph,5311,6079,NULL
1709034131,18866da2be8bf6ce7cf1fb9d8e94aa9a,PennController,13,0,main_trials,NULL,PennController,11,_Trial_,Start,1709034078728,b,4,nonstandard_pos_morph,8020,8910,NULL
1709034131,18866da2be8bf6ce7cf1fb9d8e94aa9a,PennController,13,0,main_trials,NULL,Scale,rating,Choice,6,1709034086749,b,4,nonstandard_pos_morph,8020,8910,NULL
1709034131,18866da2be8bf6ce7cf1fb9d8e94aa9a,PennController,13,0,main_trials,NULL,PennController,11,_Trial_,End,1709034087640,b,4,nonstandard_pos_morph,8020,8910,NULL
1709034131,18866da2be8bf6ce7cf1fb9d8e94aa9a,PennController,41,0,main_trials,NULL,PennController,39,_Trial_,Start,1709034087640,b,18,nonstandard_pos_nonmorph,5161,6684,NULL
1709034131,18866da2be8bf6ce7cf1fb9d8e94aa9a,PennController,41,0,main_trials,NULL,Scale,rating,Choice,5,1709034092801,b,18,nonstandard_pos_nonmorph,5161,6684,NULL
1709034131,18866da2be8bf6ce7cf1fb9d8e94aa9a,PennController,41,0,main_trials,NULL,PennController,39,_Trial_,End,1709034094325,b,18,nonstandard_pos_nonmorph,5161,6684,NULL
1709034131,18866da2be8bf6ce7cf1fb9d8e94aa9a,PennController,17,0,main_trials,NULL,PennController,15,_Trial_,Start,1709034094327,b,6,nonstandard_pos_morph,11253,12821,NULL
1709034131,18866da2be8bf6ce7cf1fb9d8e94aa9a,PennController,17,0,main_trials,NULL,Scale,rating,Choice,3,1709034105580,b,6,nonstandard_pos_morph,11253,12821,NULL
1709034131,18866da2be8bf6ce7cf1fb9d8e94aa9a,PennController,17,0,main_trials,NULL,PennController,15,_Trial_,End,1709034107149,b,6,nonstandard_pos_morph,11253,12821,NULL
1709034131,18866da2be8bf6ce7cf1fb9d8e94aa9a,PennController,33,0,main_trials,NULL,PennController,31,_Trial_,Start,1709034107150,b,14,nonstandard_pos_nonmorph,6093,10480,NULL
1709034131,18866da2be8bf6ce7cf1fb9d8e94aa9a,PennController,33,0,main_trials,NULL,Scale,rating,Choice,3,1709034113243,b,14,nonstandard_pos_nonmorph,6093,10480,NULL
1709034131,18866da2be8bf6ce7cf1fb9d8e94aa9a,PennController,33,0,main_trials,NULL,Scale,rating,Choice,4,1709034116886,b,14,nonstandard_pos_nonmorph,6093,10480,NULL
1709034131,18866da2be8bf6ce7cf1fb9d8e94aa9a,PennController,33,0,main_trials,NULL,PennController,31,_Trial_,End,1709034117630,b,14,nonstandard_pos_nonmorph,6093,10480,NULL
1709034131,18866da2be8bf6ce7cf1fb9d8e94aa9a,PennController,53,0,main_trials,NULL,PennController,51,_Trial_,Start,1709034117631,b,f4,pos_nonmorph,5666,7384,NULL
1709034131,18866da2be8bf6ce7cf1fb9d8e94aa9a,PennController,53,0,main_trials,NULL,Scale,rating,Choice,1,1709034123297,b,f4,pos_nonmorph,5666,7384,NULL
1709034131,18866da2be8bf6ce7cf1fb9d8e94aa9a,PennController,53,0,main_trials,NULL,PennController,51,_Trial_,End,1709034125016,b,f4,pos_nonmorph,5666,7384,NULL
# 13. Comments.
1709034131,18866da2be8bf6ce7cf1fb9d8e94aa9a,PennController,4,0,comments,NULL,PennController,2,_Trial_,Start,1709034125016,NULL
1709034131,18866da2be8bf6ce7cf1fb9d8e94aa9a,PennController,4,0,comments,NULL,Html,comments,comments,,1709034127674,text input
1709034131,18866da2be8bf6ce7cf1fb9d8e94aa9a,PennController,4,0,comments,NULL,PennController,2,_Trial_,End,1709034127674,NULL
1709034131,18866da2be8bf6ce7cf1fb9d8e94aa9a,PennController,5,0,prolificID,NULL,PennController,3,_Trial_,Start,1709034127675,NULL
1709034131,18866da2be8bf6ce7cf1fb9d8e94aa9a,PennController,5,0,prolificID,NULL,TextInput,prolificID,First,,1709034129405,Control
1709034131,18866da2be8bf6ce7cf1fb9d8e94aa9a,PennController,5,0,prolificID,NULL,TextInput,prolificID,Final,65ddb17e60616cd36df81188,1709034130621,NULL
1709034131,18866da2be8bf6ce7cf1fb9d8e94aa9a,PennController,5,0,prolificID,NULL,PennController,3,_Trial_,End,1709034130621,NULL
#
# Results on Tue, 27 Feb 2024 11:50:17 GMT
# USER AGENT: Mozilla/5.0 (Macintosh; Intel Mac OS X 10_15_7) AppleWebKit/537.36 (KHTML, like Gecko) Chrome/122.0.0.0 Safari/537.36
# Design number was non-random = 4
#
# Columns below this comment are as follows:
# 1. Results reception time.
# 2. MD5 hash of participant's IP address.
# 3. Controller name.
# 4. Order number of item.
# 5. Inner element number.
# 6. Label.
# 7. Latin Square Group.
# 8. PennElementType.
# 9. PennElementName.
# 10. Parameter.
# 11. Value.
# 12. EventTime.
# 13. Comments.
1709034617,8f232fd733065e46e6580a4924f2cbfe,PennController,2,0,consent_demographics,NULL,PennController,0,_Trial_,Start,1709033752362,NULL
1709034617,8f232fd733065e46e6580a4924f2cbfe,PennController,2,0,consent_demographics,NULL,Html,consent_demographics,age,57,1709033779918,text input
1709034617,8f232fd733065e46e6580a4924f2cbfe,PennController,2,0,consent_demographics,NULL,Html,consent_demographics,lang,English,1709033779918,text input
1709034617,8f232fd733065e46e6580a4924f2cbfe,PennController,2,0,consent_demographics,NULL,Html,consent_demographics,consent,on,1709033779918,radio button
1709034617,8f232fd733065e46e6580a4924f2cbfe,PennController,2,0,consent_demographics,NULL,Html,consent_demographics,Gender,Female,1709033779918,radio button
1709034617,8f232fd733065e46e6580a4924f2cbfe,PennController,2,0,consent_demographics,NULL,PennController,0,_Trial_,End,1709033779918,NULL
1709034617,8f232fd733065e46e6580a4924f2cbfe,PennController,3,0,instr_example,NULL,PennController,1,_Trial_,Start,1709033779919,NULL
1709034617,8f232fd733065e46e6580a4924f2cbfe,PennController,3,0,instr_example,NULL,Html,instr_example,practice,7,1709033849335,radio button
1709034617,8f232fd733065e46e6580a4924f2cbfe,PennController,3,0,instr_example,NULL,PennController,1,_Trial_,End,1709033849335,NULL
# 13. group.
# 14. item_id.
# 15. condition.
# 16. RT_firstChoice.
# 17. RT_secondChoice.
# 18. Comments.
1709034617,8f232fd733065e46e6580a4924f2cbfe,PennController,14,0,main_trials,NULL,PennController,12,_Trial_,Start,1709033849336,a,4,nonstandard_neg_morph,19250,20698,NULL
1709034617,8f232fd733065e46e6580a4924f2cbfe,PennController,14,0,main_trials,NULL,Scale,rating,Choice,5,1709033868589,a,4,nonstandard_neg_morph,19250,20698,NULL
1709034617,8f232fd733065e46e6580a4924f2cbfe,PennController,14,0,main_trials,NULL,PennController,12,_Trial_,End,1709033870039,a,4,nonstandard_neg_morph,19250,20698,NULL
1709034617,8f232fd733065e46e6580a4924f2cbfe,PennController,44,0,main_trials,NULL,PennController,42,_Trial_,Start,1709033870040,a,19,nonstandard_neg_nonmorph,15753,18221,NULL
1709034617,8f232fd733065e46e6580a4924f2cbfe,PennController,44,0,main_trials,NULL,Scale,rating,Choice,3,1709033885793,a,19,nonstandard_neg_nonmorph,15753,18221,NULL
1709034617,8f232fd733065e46e6580a4924f2cbfe,PennController,44,0,main_trials,NULL,PennController,42,_Trial_,End,1709033888261,a,19,nonstandard_neg_nonmorph,15753,18221,NULL
1709034617,8f232fd733065e46e6580a4924f2cbfe,PennController,54,0,main_trials,NULL,PennController,52,_Trial_,Start,1709033888262,a,f4,neg_nonmorph,7817,9535,NULL
1709034617,8f232fd733065e46e6580a4924f2cbfe,PennController,54,0,main_trials,NULL,Scale,rating,Choice,6,1709033896079,a,f4,neg_nonmorph,7817,9535,NULL
1709034617,8f232fd733065e46e6580a4924f2cbfe,PennController,54,0,main_trials,NULL,PennController,52,_Trial_,End,1709033897797,a,f4,neg_nonmorph,7817,9535,NULL
1709034617,8f232fd733065e46e6580a4924f2cbfe,PennController,11,0,main_trials,NULL,PennController,9,_Trial_,Start,1709033897798,a,3,standard_pos_morph,16536,17836,NULL
1709034617,8f232fd733065e46e6580a4924f2cbfe,PennController,11,0,main_trials,NULL,Scale,rating,Choice,6,1709033914334,a,3,standard_pos_morph,16536,17836,NULL
1709034617,8f232fd733065e46e6580a4924f2cbfe,PennController,11,0,main_trials,NULL,PennController,9,_Trial_,End,1709033915634,a,3,standard_pos_morph,16536,17836,NULL
1709034617,8f232fd733065e46e6580a4924f2cbfe,PennController,7,0,main_trials,NULL,PennController,5,_Trial_,Start,1709033915635,a,1,standard_pos_morph,19504,23205,NULL
1709034617,8f232fd733065e46e6580a4924f2cbfe,PennController,7,0,main_trials,NULL,Scale,rating,Choice,6,1709033935139,a,1,standard_pos_morph,19504,23205,NULL
1709034617,8f232fd733065e46e6580a4924f2cbfe,PennController,7,0,main_trials,NULL,Scale,rating,Choice,7,1709033936806,a,1,standard_pos_morph,19504,23205,NULL
1709034617,8f232fd733065e46e6580a4924f2cbfe,PennController,7,0,main_trials,NULL,PennController,5,_Trial_,End,1709033938841,a,1,standard_pos_morph,19504,23205,NULL
1709034617,8f232fd733065e46e6580a4924f2cbfe,PennController,56,0,main_trials,NULL,PennController,54,_Trial_,Start,1709033938841,a,f5,neg_morph,11668,12969,NULL
1709034617,8f232fd733065e46e6580a4924f2cbfe,PennController,56,0,main_trials,NULL,Scale,rating,Choice,1,1709033950509,a,f5,neg_morph,11668,12969,NULL
1709034617,8f232fd733065e46e6580a4924f2cbfe,PennController,56,0,main_trials,NULL,PennController,54,_Trial_,End,1709033951811,a,f5,neg_morph,11668,12969,NULL
1709034617,8f232fd733065e46e6580a4924f2cbfe,PennController,36,0,main_trials,NULL,PennController,34,_Trial_,Start,1709033951811,a,15,nonstandard_neg_nonmorph,18269,19202,NULL
1709034617,8f232fd733065e46e6580a4924f2cbfe,PennController,36,0,main_trials,NULL,Scale,rating,Choice,2,1709033970081,a,15,nonstandard_neg_nonmorph,18269,19202,NULL
1709034617,8f232fd733065e46e6580a4924f2cbfe,PennController,36,0,main_trials,NULL,PennController,34,_Trial_,End,1709033971015,a,15,nonstandard_neg_nonmorph,18269,19202,NULL
1709034617,8f232fd733065e46e6580a4924f2cbfe,PennController,12,0,main_trials,NULL,PennController,10,_Trial_,Start,1709033971016,a,3,nonstandard_neg_morph,16736,19887,NULL
1709034617,8f232fd733065e46e6580a4924f2cbfe,PennController,12,0,main_trials,NULL,Scale,rating,Choice,2,1709033987752,a,3,nonstandard_neg_morph,16736,19887,NULL
1709034617,8f232fd733065e46e6580a4924f2cbfe,PennController,12,0,main_trials,NULL,PennController,10,_Trial_,End,1709033990903,a,3,nonstandard_neg_morph,16736,19887,NULL
1709034617,8f232fd733065e46e6580a4924f2cbfe,PennController,10,0,main_trials,NULL,PennController,8,_Trial_,Start,1709033990904,a,2,nonstandard_neg_morph,12269,13335,NULL
1709034617,8f232fd733065e46e6580a4924f2cbfe,PennController,10,0,main_trials,NULL,Scale,rating,Choice,2,1709034003173,a,2,nonstandard_neg_morph,12269,13335,NULL
1709034617,8f232fd733065e46e6580a4924f2cbfe,PennController,10,0,main_trials,NULL,PennController,8,_Trial_,End,1709034004240,a,2,nonstandard_neg_morph,12269,13335,NULL
1709034617,8f232fd733065e46e6580a4924f2cbfe,PennController,15,0,main_trials,NULL,PennController,13,_Trial_,Start,1709034004241,a,5,standard_pos_morph,16119,17386,NULL
1709034617,8f232fd733065e46e6580a4924f2cbfe,PennController,15,0,main_trials,NULL,Scale,rating,Choice,7,1709034020360,a,5,standard_pos_morph,16119,17386,NULL
1709034617,8f232fd733065e46e6580a4924f2cbfe,PennController,15,0,main_trials,NULL,PennController,13,_Trial_,End,1709034021628,a,5,standard_pos_morph,16119,17386,NULL
1709034617,8f232fd733065e46e6580a4924f2cbfe,PennController,16,0,main_trials,NULL,PennController,14,_Trial_,Start,1709034021628,a,5,nonstandard_neg_morph,20338,21305,NULL
1709034617,8f232fd733065e46e6580a4924f2cbfe,PennController,16,0,main_trials,NULL,Scale,rating,Choice,3,1709034041965,a,5,nonstandard_neg_morph,20338,21305,NULL
1709034617,8f232fd733065e46e6580a4924f2cbfe,PennController,16,0,main_trials,NULL,PennController,14,_Trial_,End,1709034042933,a,5,nonstandard_neg_morph,20338,21305,NULL
1709034617,8f232fd733065e46e6580a4924f2cbfe,PennController,55,0,main_trials,NULL,PennController,53,_Trial_,Start,1709034042934,a,f5,pos_morph,7100,8434,NULL
1709034617,8f232fd733065e46e6580a4924f2cbfe,PennController,55,0,main_trials,NULL,Scale,rating,Choice,3,1709034050034,a,f5,pos_morph,7100,8434,NULL
1709034617,8f232fd733065e46e6580a4924f2cbfe,PennController,55,0,main_trials,NULL,PennController,53,_Trial_,End,1709034051368,a,f5,pos_morph,7100,8434,NULL
1709034617,8f232fd733065e46e6580a4924f2cbfe,PennController,13,0,main_trials,NULL,PennController,11,_Trial_,Start,1709034051369,a,4,standard_pos_morph,8401,9718,NULL
1709034617,8f232fd733065e46e6580a4924f2cbfe,PennController,13,0,main_trials,NULL,Scale,rating,Choice,6,1709034059770,a,4,standard_pos_morph,8401,9718,NULL
1709034617,8f232fd733065e46e6580a4924f2cbfe,PennController,13,0,main_trials,NULL,PennController,11,_Trial_,End,1709034061087,a,4,standard_pos_morph,8401,9718,NULL
1709034617,8f232fd733065e46e6580a4924f2cbfe,PennController,53,0,main_trials,NULL,PennController,51,_Trial_,Start,1709034061088,a,f4,pos_nonmorph,8917,10101,NULL
1709034617,8f232fd733065e46e6580a4924f2cbfe,PennController,53,0,main_trials,NULL,Scale,rating,Choice,2,1709034070005,a,f4,pos_nonmorph,8917,10101,NULL
1709034617,8f232fd733065e46e6580a4924f2cbfe,PennController,53,0,main_trials,NULL,PennController,51,_Trial_,End,1709034071190,a,f4,pos_nonmorph,8917,10101,NULL
1709034617,8f232fd733065e46e6580a4924f2cbfe,PennController,23,0,main_trials,NULL,PennController,21,_Trial_,Start,1709034071191,a,9,standard_pos_morph,14785,17103,NULL
1709034617,8f232fd733065e46e6580a4924f2cbfe,PennController,23,0,main_trials,NULL,Scale,rating,Choice,7,1709034085976,a,9,standard_pos_morph,14785,17103,NULL
1709034617,8f232fd733065e46e6580a4924f2cbfe,PennController,23,0,main_trials,NULL,PennController,21,_Trial_,End,1709034088294,a,9,standard_pos_morph,14785,17103,NULL
1709034617,8f232fd733065e46e6580a4924f2cbfe,PennController,46,0,main_trials,NULL,PennController,44,_Trial_,Start,1709034088295,a,20,nonstandard_neg_nonmorph,12718,14069,NULL
1709034617,8f232fd733065e46e6580a4924f2cbfe,PennController,46,0,main_trials,NULL,Scale,rating,Choice,2,1709034101013,a,20,nonstandard_neg_nonmorph,12718,14069,NULL
1709034617,8f232fd733065e46e6580a4924f2cbfe,PennController,46,0,main_trials,NULL,PennController,44,_Trial_,End,1709034102365,a,20,nonstandard_neg_nonmorph,12718,14069,NULL
1709034617,8f232fd733065e46e6580a4924f2cbfe,PennController,34,0,main_trials,NULL,PennController,32,_Trial_,Start,1709034102365,a,14,nonstandard_neg_nonmorph,6851,7884,NULL
1709034617,8f232fd733065e46e6580a4924f2cbfe,PennController,34,0,main_trials,NULL,Scale,rating,Choice,2,1709034109215,a,14,nonstandard_neg_nonmorph,6851,7884,NULL
1709034617,8f232fd733065e46e6580a4924f2cbfe,PennController,34,0,main_trials,NULL,PennController,32,_Trial_,End,1709034110250,a,14,nonstandard_neg_nonmorph,6851,7884,NULL
1709034617,8f232fd733065e46e6580a4924f2cbfe,PennController,22,0,main_trials,NULL,PennController,20,_Trial_,Start,1709034110251,a,8,nonstandard_neg_morph,39975,43992,NULL
1709034617,8f232fd733065e46e6580a4924f2cbfe,PennController,22,0,main_trials,NULL,Scale,rating,Choice,4,1709034150225,a,8,nonstandard_neg_morph,39975,43992,NULL
1709034617,8f232fd733065e46e6580a4924f2cbfe,PennController,22,0,main_trials,NULL,Scale,rating,Choice,3,1709034152760,a,8,nonstandard_neg_morph,39975,43992,NULL
1709034617,8f232fd733065e46e6580a4924f2cbfe,PennController,22,0,main_trials,NULL,PennController,20,_Trial_,End,1709034154244,a,8,nonstandard_neg_morph,39975,43992,NULL
1709034617,8f232fd733065e46e6580a4924f2cbfe,PennController,43,0,main_trials,NULL,PennController,41,_Trial_,Start,1709034154245,a,19,standard_pos_nonmorph,23004,26955,NULL
1709034617,8f232fd733065e46e6580a4924f2cbfe,PennController,43,0,main_trials,NULL,Scale,rating,Choice,7,1709034177249,a,19,standard_pos_nonmorph,23004,26955,NULL
1709034617,8f232fd733065e46e6580a4924f2cbfe,PennController,43,0,main_trials,NULL,Scale,rating,Choice,5,1709034179933,a,19,standard_pos_nonmorph,23004,26955,NULL
1709034617,8f232fd733065e46e6580a4924f2cbfe,PennController,43,0,main_trials,NULL,PennController,41,_Trial_,End,1709034181201,a,19,standard_pos_nonmorph,23004,26955,NULL
1709034617,8f232fd733065e46e6580a4924f2cbfe,PennController,19,0,main_trials,NULL,PennController,17,_Trial_,Start,1709034181201,a,7,standard_pos_morph,12936,13969,NULL
1709034617,8f232fd733065e46e6580a4924f2cbfe,PennController,19,0,main_trials,NULL,Scale,rating,Choice,7,1709034194137,a,7,standard_pos_morph,12936,13969,NULL
1709034617,8f232fd733065e46e6580a4924f2cbfe,PennController,19,0,main_trials,NULL,PennController,17,_Trial_,End,1709034195171,a,7,standard_pos_morph,12936,13969,NULL
1709034617,8f232fd733065e46e6580a4924f2cbfe,PennController,42,0,main_trials,NULL,PennController,40,_Trial_,Start,1709034195172,a,18,nonstandard_neg_nonmorph,10484,11985,NULL
1709034617,8f232fd733065e46e6580a4924f2cbfe,PennController,42,0,main_trials,NULL,Scale,rating,Choice,2,1709034205656,a,18,nonstandard_neg_nonmorph,10484,11985,NULL
1709034617,8f232fd733065e46e6580a4924f2cbfe,PennController,42,0,main_trials,NULL,PennController,40,_Trial_,End,1709034207158,a,18,nonstandard_neg_nonmorph,10484,11985,NULL
1709034617,8f232fd733065e46e6580a4924f2cbfe,PennController,35,0,main_trials,NULL,PennController,33,_Trial_,Start,1709034207158,a,15,standard_pos_nonmorph,11668,12668,NULL
1709034617,8f232fd733065e46e6580a4924f2cbfe,PennController,35,0,main_trials,NULL,Scale,rating,Choice,6,1709034218826,a,15,standard_pos_nonmorph,11668,12668,NULL
1709034617,8f232fd733065e46e6580a4924f2cbfe,PennController,35,0,main_trials,NULL,PennController,33,_Trial_,End,1709034219827,a,15,standard_pos_nonmorph,11668,12668,NULL
1709034617,8f232fd733065e46e6580a4924f2cbfe,PennController,21,0,main_trials,NULL,PennController,19,_Trial_,Start,1709034219827,a,8,standard_pos_morph,9652,10485,NULL
1709034617,8f232fd733065e46e6580a4924f2cbfe,PennController,21,0,main_trials,NULL,Scale,rating,Choice,6,1709034229479,a,8,standard_pos_morph,9652,10485,NULL
1709034617,8f232fd733065e46e6580a4924f2cbfe,PennController,21,0,main_trials,NULL,PennController,19,_Trial_,End,1709034230313,a,8,standard_pos_morph,9652,10485,NULL
1709034617,8f232fd733065e46e6580a4924f2cbfe,PennController,39,0,main_trials,NULL,PennController,37,_Trial_,Start,1709034230313,a,17,standard_pos_nonmorph,15653,16537,NULL
1709034617,8f232fd733065e46e6580a4924f2cbfe,PennController,39,0,main_trials,NULL,Scale,rating,Choice,6,1709034245966,a,17,standard_pos_nonmorph,15653,16537,NULL
1709034617,8f232fd733065e46e6580a4924f2cbfe,PennController,39,0,main_trials,NULL,PennController,37,_Trial_,End,1709034246851,a,17,standard_pos_nonmorph,15653,16537,NULL
1709034617,8f232fd733065e46e6580a4924f2cbfe,PennController,26,0,main_trials,NULL,PennController,24,_Trial_,Start,1709034246851,a,10,nonstandard_neg_morph,15170,16736,NULL
1709034617,8f232fd733065e46e6580a4924f2cbfe,PennController,26,0,main_trials,NULL,Scale,rating,Choice,3,1709034262021,a,10,nonstandard_neg_morph,15170,16736,NULL
1709034617,8f232fd733065e46e6580a4924f2cbfe,PennController,26,0,main_trials,NULL,PennController,24,_Trial_,End,1709034263588,a,10,nonstandard_neg_morph,15170,16736,NULL
1709034617,8f232fd733065e46e6580a4924f2cbfe,PennController,47,0,main_trials,NULL,PennController,45,_Trial_,Start,1709034263589,a,f1,pos_nonmorph,7833,8751,NULL
1709034617,8f232fd733065e46e6580a4924f2cbfe,PennController,47,0,main_trials,NULL,Scale,rating,Choice,3,1709034271422,a,f1,pos_nonmorph,7833,8751,NULL
1709034617,8f232fd733065e46e6580a4924f2cbfe,PennController,47,0,main_trials,NULL,PennController,45,_Trial_,End,1709034272340,a,f1,pos_nonmorph,7833,8751,NULL
1709034617,8f232fd733065e46e6580a4924f2cbfe,PennController,25,0,main_trials,NULL,PennController,23,_Trial_,Start,1709034272341,a,10,standard_pos_morph,13585,16019,NULL
1709034617,8f232fd733065e46e6580a4924f2cbfe,PennController,25,0,main_trials,NULL,Scale,rating,Choice,5,1709034285926,a,10,standard_pos_morph,13585,16019,NULL
1709034617,8f232fd733065e46e6580a4924f2cbfe,PennController,25,0,main_trials,NULL,Scale,rating,Choice,6,1709034286877,a,10,standard_pos_morph,13585,16019,NULL
1709034617,8f232fd733065e46e6580a4924f2cbfe,PennController,25,0,main_trials,NULL,PennController,23,_Trial_,End,1709034288361,a,10,standard_pos_morph,13585,16019,NULL
1709034617,8f232fd733065e46e6580a4924f2cbfe,PennController,24,0,main_trials,NULL,PennController,22,_Trial_,Start,1709034288361,a,9,nonstandard_neg_morph,14869,15970,NULL
1709034617,8f232fd733065e46e6580a4924f2cbfe,PennController,24,0,main_trials,NULL,Scale,rating,Choice,5,1709034303230,a,9,nonstandard_neg_morph,14869,15970,NULL
1709034617,8f232fd733065e46e6580a4924f2cbfe,PennController,24,0,main_trials,NULL,PennController,22,_Trial_,End,1709034304331,a,9,nonstandard_neg_morph,14869,15970,NULL
1709034617,8f232fd733065e46e6580a4924f2cbfe,PennController,48,0,main_trials,NULL,PennController,46,_Trial_,Start,1709034304332,a,f1,neg_nonmorph,6333,7418,NULL
1709034617,8f232fd733065e46e6580a4924f2cbfe,PennController,48,0,main_trials,NULL,Scale,rating,Choice,1,1709034310665,a,f1,neg_nonmorph,6333,7418,NULL
1709034617,8f232fd733065e46e6580a4924f2cbfe,PennController,48,0,main_trials,NULL,PennController,46,_Trial_,End,1709034311750,a,f1,neg_nonmorph,6333,7418,NULL
1709034617,8f232fd733065e46e6580a4924f2cbfe,PennController,20,0,main_trials,NULL,PennController,18,_Trial_,Start,1709034311751,a,7,nonstandard_neg_morph,16352,17503,NULL
1709034617,8f232fd733065e46e6580a4924f2cbfe,PennController,20,0,main_trials,NULL,Scale,rating,Choice,2,1709034328103,a,7,nonstandard_neg_morph,16352,17503,NULL
1709034617,8f232fd733065e46e6580a4924f2cbfe,PennController,20,0,main_trials,NULL,PennController,18,_Trial_,End,1709034329254,a,7,nonstandard_neg_morph,16352,17503,NULL
1709034617,8f232fd733065e46e6580a4924f2cbfe,PennController,45,0,main_trials,NULL,PennController,43,_Trial_,Start,1709034329255,a,20,standard_pos_nonmorph,13019,14153,NULL
1709034617,8f232fd733065e46e6580a4924f2cbfe,PennController,45,0,main_trials,NULL,Scale,rating,Choice,2,1709034342273,a,20,standard_pos_nonmorph,13019,14153,NULL
1709034617,8f232fd733065e46e6580a4924f2cbfe,PennController,45,0,main_trials,NULL,PennController,43,_Trial_,End,1709034343408,a,20,standard_pos_nonmorph,13019,14153,NULL
1709034617,8f232fd733065e46e6580a4924f2cbfe,PennController,40,0,main_trials,NULL,PennController,38,_Trial_,Start,1709034343409,a,17,nonstandard_neg_nonmorph,17469,18404,NULL
1709034617,8f232fd733065e46e6580a4924f2cbfe,PennController,40,0,main_trials,NULL,Scale,rating,Choice,2,1709034360878,a,17,nonstandard_neg_nonmorph,17469,18404,NULL
1709034617,8f232fd733065e46e6580a4924f2cbfe,PennController,40,0,main_trials,NULL,PennController,38,_Trial_,End,1709034361813,a,17,nonstandard_neg_nonmorph,17469,18404,NULL
1709034617,8f232fd733065e46e6580a4924f2cbfe,PennController,31,0,main_trials,NULL,PennController,29,_Trial_,Start,1709034361814,a,13,standard_pos_nonmorph,11151,13284,NULL
1709034617,8f232fd733065e46e6580a4924f2cbfe,PennController,31,0,main_trials,NULL,Scale,rating,Choice,6,1709034372965,a,13,standard_pos_nonmorph,11151,13284,NULL
1709034617,8f232fd733065e46e6580a4924f2cbfe,PennController,31,0,main_trials,NULL,PennController,29,_Trial_,End,1709034375099,a,13,standard_pos_nonmorph,11151,13284,NULL
1709034617,8f232fd733065e46e6580a4924f2cbfe,PennController,27,0,main_trials,NULL,PennController,25,_Trial_,Start,1709034375099,a,11,standard_pos_morph,12052,13185,NULL
1709034617,8f232fd733065e46e6580a4924f2cbfe,PennController,27,0,main_trials,NULL,Scale,rating,Choice,7,1709034387152,a,11,standard_pos_morph,12052,13185,NULL
1709034617,8f232fd733065e46e6580a4924f2cbfe,PennController,27,0,main_trials,NULL,PennController,25,_Trial_,End,1709034388286,a,11,standard_pos_morph,12052,13185,NULL
1709034617,8f232fd733065e46e6580a4924f2cbfe,PennController,37,0,main_trials,NULL,PennController,35,_Trial_,Start,1709034388286,a,16,standard_pos_nonmorph,11535,13502,NULL
1709034617,8f232fd733065e46e6580a4924f2cbfe,PennController,37,0,main_trials,NULL,Scale,rating,Choice,6,1709034399821,a,16,standard_pos_nonmorph,11535,13502,NULL
1709034617,8f232fd733065e46e6580a4924f2cbfe,PennController,37,0,main_trials,NULL,Scale,rating,Choice,7,1709034400888,a,16,standard_pos_nonmorph,11535,13502,NULL
1709034617,8f232fd733065e46e6580a4924f2cbfe,PennController,37,0,main_trials,NULL,PennController,35,_Trial_,End,1709034401789,a,16,standard_pos_nonmorph,11535,13502,NULL
1709034617,8f232fd733065e46e6580a4924f2cbfe,PennController,9,0,main_trials,NULL,PennController,7,_Trial_,Start,1709034401790,a,2,standard_pos_morph,9267,10235,NULL
1709034617,8f232fd733065e46e6580a4924f2cbfe,PennController,9,0,main_trials,NULL,Scale,rating,Choice,6,1709034411057,a,2,standard_pos_morph,9267,10235,NULL
1709034617,8f232fd733065e46e6580a4924f2cbfe,PennController,9,0,main_trials,NULL,PennController,7,_Trial_,End,1709034412025,a,2,standard_pos_morph,9267,10235,NULL
1709034617,8f232fd733065e46e6580a4924f2cbfe,PennController,50,0,main_trials,NULL,PennController,48,_Trial_,Start,1709034412026,a,f2,neg_nonmorph,7233,8017,NULL
1709034617,8f232fd733065e46e6580a4924f2cbfe,PennController,50,0,main_trials,NULL,Scale,rating,Choice,2,1709034419259,a,f2,neg_nonmorph,7233,8017,NULL
1709034617,8f232fd733065e46e6580a4924f2cbfe,PennController,50,0,main_trials,NULL,PennController,48,_Trial_,End,1709034420044,a,f2,neg_nonmorph,7233,8017,NULL
1709034617,8f232fd733065e46e6580a4924f2cbfe,PennController,52,0,main_trials,NULL,PennController,50,_Trial_,Start,1709034420044,a,f3,pos_nonmorph,15803,16603,NULL
1709034617,8f232fd733065e46e6580a4924f2cbfe,PennController,52,0,main_trials,NULL,Scale,rating,Choice,3,1709034435847,a,f3,pos_nonmorph,15803,16603,NULL
1709034617,8f232fd733065e46e6580a4924f2cbfe,PennController,52,0,main_trials,NULL,PennController,50,_Trial_,End,1709034436647,a,f3,pos_nonmorph,15803,16603,NULL
1709034617,8f232fd733065e46e6580a4924f2cbfe,PennController,38,0,main_trials,NULL,PennController,36,_Trial_,Start,1709034436648,a,16,nonstandard_neg_nonmorph,9918,10919,NULL
1709034617,8f232fd733065e46e6580a4924f2cbfe,PennController,38,0,main_trials,NULL,Scale,rating,Choice,2,1709034446565,a,16,nonstandard_neg_nonmorph,9918,10919,NULL
1709034617,8f232fd733065e46e6580a4924f2cbfe,PennController,38,0,main_trials,NULL,PennController,36,_Trial_,End,1709034447568,a,16,nonstandard_neg_nonmorph,9918,10919,NULL
1709034617,8f232fd733065e46e6580a4924f2cbfe,PennController,8,0,main_trials,NULL,PennController,6,_Trial_,Start,1709034447568,a,1,nonstandard_neg_morph,18536,19754,NULL
1709034617,8f232fd733065e46e6580a4924f2cbfe,PennController,8,0,main_trials,NULL,Scale,rating,Choice,2,1709034466104,a,1,nonstandard_neg_morph,18536,19754,NULL
1709034617,8f232fd733065e46e6580a4924f2cbfe,PennController,8,0,main_trials,NULL,PennController,6,_Trial_,End,1709034467322,a,1,nonstandard_neg_morph,18536,19754,NULL
1709034617,8f232fd733065e46e6580a4924f2cbfe,PennController,49,0,main_trials,NULL,PennController,47,_Trial_,Start,1709034467323,a,f2,pos_nonmorph,6316,7217,NULL
1709034617,8f232fd733065e46e6580a4924f2cbfe,PennController,49,0,main_trials,NULL,Scale,rating,Choice,3,1709034473639,a,f2,pos_nonmorph,6316,7217,NULL
1709034617,8f232fd733065e46e6580a4924f2cbfe,PennController,49,0,main_trials,NULL,PennController,47,_Trial_,End,1709034474540,a,f2,pos_nonmorph,6316,7217,NULL
1709034617,8f232fd733065e46e6580a4924f2cbfe,PennController,32,0,main_trials,NULL,PennController,30,_Trial_,Start,1709034474541,a,13,nonstandard_neg_nonmorph,17136,18003,NULL
1709034617,8f232fd733065e46e6580a4924f2cbfe,PennController,32,0,main_trials,NULL,Scale,rating,Choice,2,1709034491677,a,13,nonstandard_neg_nonmorph,17136,18003,NULL
1709034617,8f232fd733065e46e6580a4924f2cbfe,PennController,32,0,main_trials,NULL,PennController,30,_Trial_,End,1709034492545,a,13,nonstandard_neg_nonmorph,17136,18003,NULL
1709034617,8f232fd733065e46e6580a4924f2cbfe,PennController,29,0,main_trials,NULL,PennController,27,_Trial_,Start,1709034492546,a,12,standard_pos_nonmorph,27855,28788,NULL
1709034617,8f232fd733065e46e6580a4924f2cbfe,PennController,29,0,main_trials,NULL,Scale,rating,Choice,6,1709034520401,a,12,standard_pos_nonmorph,27855,28788,NULL
1709034617,8f232fd733065e46e6580a4924f2cbfe,PennController,29,0,main_trials,NULL,PennController,27,_Trial_,End,1709034521335,a,12,standard_pos_nonmorph,27855,28788,NULL
1709034617,8f232fd733065e46e6580a4924f2cbfe,PennController,17,0,main_trials,NULL,PennController,15,_Trial_,Start,1709034521336,a,6,standard_pos_morph,10652,11719,NULL
1709034617,8f232fd733065e46e6580a4924f2cbfe,PennController,17,0,main_trials,NULL,Scale,rating,Choice,7,1709034531988,a,6,standard_pos_morph,10652,11719,NULL
1709034617,8f232fd733065e46e6580a4924f2cbfe,PennController,17,0,main_trials,NULL,PennController,15,_Trial_,End,1709034533055,a,6,standard_pos_morph,10652,11719,NULL
1709034617,8f232fd733065e46e6580a4924f2cbfe,PennController,41,0,main_trials,NULL,PennController,39,_Trial_,Start,1709034533056,a,18,standard_pos_nonmorph,11234,12385,NULL
1709034617,8f232fd733065e46e6580a4924f2cbfe,PennController,41,0,main_trials,NULL,Scale,rating,Choice,6,1709034544290,a,18,standard_pos_nonmorph,11234,12385,NULL
1709034617,8f232fd733065e46e6580a4924f2cbfe,PennController,41,0,main_trials,NULL,PennController,39,_Trial_,End,1709034545441,a,18,standard_pos_nonmorph,11234,12385,NULL
1709034617,8f232fd733065e46e6580a4924f2cbfe,PennController,18,0,main_trials,NULL,PennController,16,_Trial_,Start,1709034545442,a,6,nonstandard_neg_morph,11419,12402,NULL
1709034617,8f232fd733065e46e6580a4924f2cbfe,PennController,18,0,main_trials,NULL,Scale,rating,Choice,2,1709034556861,a,6,nonstandard_neg_morph,11419,12402,NULL
1709034617,8f232fd733065e46e6580a4924f2cbfe,PennController,18,0,main_trials,NULL,PennController,16,_Trial_,End,1709034557844,a,6,nonstandard_neg_morph,11419,12402,NULL
1709034617,8f232fd733065e46e6580a4924f2cbfe,PennController,28,0,main_trials,NULL,PennController,26,_Trial_,Start,1709034557845,a,11,nonstandard_neg_morph,10385,11502,NULL
1709034617,8f232fd733065e46e6580a4924f2cbfe,PennController,28,0,main_trials,NULL,Scale,rating,Choice,2,1709034568230,a,11,nonstandard_neg_morph,10385,11502,NULL
1709034617,8f232fd733065e46e6580a4924f2cbfe,PennController,28,0,main_trials,NULL,PennController,26,_Trial_,End,1709034569347,a,11,nonstandard_neg_morph,10385,11502,NULL
1709034617,8f232fd733065e46e6580a4924f2cbfe,PennController,33,0,main_trials,NULL,PennController,31,_Trial_,Start,1709034569348,a,14,standard_pos_nonmorph,6267,7400,NULL
1709034617,8f232fd733065e46e6580a4924f2cbfe,PennController,33,0,main_trials,NULL,Scale,rating,Choice,6,1709034575615,a,14,standard_pos_nonmorph,6267,7400,NULL
1709034617,8f232fd733065e46e6580a4924f2cbfe,PennController,33,0,main_trials,NULL,PennController,31,_Trial_,End,1709034576749,a,14,standard_pos_nonmorph,6267,7400,NULL
1709034617,8f232fd733065e46e6580a4924f2cbfe,PennController,51,0,main_trials,NULL,PennController,49,_Trial_,Start,1709034576749,a,f3,neg_nonmorph,5818,6785,NULL
1709034617,8f232fd733065e46e6580a4924f2cbfe,PennController,51,0,main_trials,NULL,Scale,rating,Choice,2,1709034582567,a,f3,neg_nonmorph,5818,6785,NULL
1709034617,8f232fd733065e46e6580a4924f2cbfe,PennController,51,0,main_trials,NULL,PennController,49,_Trial_,End,1709034583534,a,f3,neg_nonmorph,5818,6785,NULL
1709034617,8f232fd733065e46e6580a4924f2cbfe,PennController,30,0,main_trials,NULL,PennController,28,_Trial_,Start,1709034583535,a,12,nonstandard_neg_nonmorph,8368,9451,NULL
1709034617,8f232fd733065e46e6580a4924f2cbfe,PennController,30,0,main_trials,NULL,Scale,rating,Choice,3,1709034591903,a,12,nonstandard_neg_nonmorph,8368,9451,NULL
1709034617,8f232fd733065e46e6580a4924f2cbfe,PennController,30,0,main_trials,NULL,PennController,28,_Trial_,End,1709034592986,a,12,nonstandard_neg_nonmorph,8368,9451,NULL
# 13. Comments.
1709034617,8f232fd733065e46e6580a4924f2cbfe,PennController,4,0,comments,NULL,PennController,2,_Trial_,Start,1709034592987,NULL
1709034617,8f232fd733065e46e6580a4924f2cbfe,PennController,4,0,comments,NULL,Html,comments,comments,,1709034603657,text input
1709034617,8f232fd733065e46e6580a4924f2cbfe,PennController,4,0,comments,NULL,PennController,2,_Trial_,End,1709034603657,NULL
1709034617,8f232fd733065e46e6580a4924f2cbfe,PennController,5,0,prolificID,NULL,PennController,3,_Trial_,Start,1709034603657,NULL
1709034617,8f232fd733065e46e6580a4924f2cbfe,PennController,5,0,prolificID,NULL,TextInput,prolificID,First,,1709034615280,Meta
1709034617,8f232fd733065e46e6580a4924f2cbfe,PennController,5,0,prolificID,NULL,TextInput,prolificID,Final,63bfe3ecac5ad9d9ab40a643,1709034617543,NULL
1709034617,8f232fd733065e46e6580a4924f2cbfe,PennController,5,0,prolificID,NULL,PennController,3,_Trial_,End,1709034617543,NULL
#
# Results on Tue, 27 Feb 2024 11:50:19 GMT
# USER AGENT: Mozilla/5.0 (Windows NT 10.0; Win64; x64) AppleWebKit/537.36 (KHTML, like Gecko) Chrome/121.0.0.0 Safari/537.36
# Design number was non-random = 2
#
# Columns below this comment are as follows:
# 1. Results reception time.
# 2. MD5 hash of participant's IP address.
# 3. Controller name.
# 4. Order number of item.
# 5. Inner element number.
# 6. Label.
# 7. Latin Square Group.
# 8. PennElementType.
# 9. PennElementName.
# 10. Parameter.
# 11. Value.
# 12. EventTime.
# 13. Comments.
1709034619,81d79c44745a2beeb8ff1df4c02783cd,PennController,2,0,consent_demographics,NULL,PennController,0,_Trial_,Start,1709033612137,NULL
1709034619,81d79c44745a2beeb8ff1df4c02783cd,PennController,2,0,consent_demographics,NULL,Html,consent_demographics,age,32,1709033633740,text input
1709034619,81d79c44745a2beeb8ff1df4c02783cd,PennController,2,0,consent_demographics,NULL,Html,consent_demographics,lang,english,1709033633740,text input
1709034619,81d79c44745a2beeb8ff1df4c02783cd,PennController,2,0,consent_demographics,NULL,Html,consent_demographics,consent,on,1709033633740,radio button
1709034619,81d79c44745a2beeb8ff1df4c02783cd,PennController,2,0,consent_demographics,NULL,Html,consent_demographics,Gender,Male,1709033633740,radio button
1709034619,81d79c44745a2beeb8ff1df4c02783cd,PennController,2,0,consent_demographics,NULL,PennController,0,_Trial_,End,1709033633740,NULL
1709034619,81d79c44745a2beeb8ff1df4c02783cd,PennController,3,0,instr_example,NULL,PennController,1,_Trial_,Start,1709033633741,NULL
1709034619,81d79c44745a2beeb8ff1df4c02783cd,PennController,3,0,instr_example,NULL,Html,instr_example,practice,4,1709033735298,radio button
1709034619,81d79c44745a2beeb8ff1df4c02783cd,PennController,3,0,instr_example,NULL,PennController,1,_Trial_,End,1709033735298,NULL
# 13. group.
# 14. item_id.
# 15. condition.
# 16. RT_firstChoice.
# 17. RT_secondChoice.
# 18. Comments.
1709034619,81d79c44745a2beeb8ff1df4c02783cd,PennController,16,0,main_trials,NULL,PennController,14,_Trial_,Start,1709033735299,a,5,nonstandard_neg_morph,27263,28035,NULL
1709034619,81d79c44745a2beeb8ff1df4c02783cd,PennController,16,0,main_trials,NULL,Scale,rating,Choice,3,1709033762575,a,5,nonstandard_neg_morph,27263,28035,NULL
1709034619,81d79c44745a2beeb8ff1df4c02783cd,PennController,16,0,main_trials,NULL,PennController,14,_Trial_,End,1709033763348,a,5,nonstandard_neg_morph,27263,28035,NULL
1709034619,81d79c44745a2beeb8ff1df4c02783cd,PennController,38,0,main_trials,NULL,PennController,36,_Trial_,Start,1709033763349,a,16,nonstandard_neg_nonmorph,29366,40703,NULL
1709034619,81d79c44745a2beeb8ff1df4c02783cd,PennController,38,0,main_trials,NULL,Scale,rating,Choice,5,1709033792715,a,16,nonstandard_neg_nonmorph,29366,40703,NULL
1709034619,81d79c44745a2beeb8ff1df4c02783cd,PennController,38,0,main_trials,NULL,Scale,rating,Choice,4,1709033803292,a,16,nonstandard_neg_nonmorph,29366,40703,NULL
1709034619,81d79c44745a2beeb8ff1df4c02783cd,PennController,38,0,main_trials,NULL,PennController,36,_Trial_,End,1709033804052,a,16,nonstandard_neg_nonmorph,29366,40703,NULL
1709034619,81d79c44745a2beeb8ff1df4c02783cd,PennController,32,0,main_trials,NULL,PennController,30,_Trial_,Start,1709033804053,a,13,nonstandard_neg_nonmorph,23421,30015,NULL
1709034619,81d79c44745a2beeb8ff1df4c02783cd,PennController,32,0,main_trials,NULL,Scale,rating,Choice,5,1709033827475,a,13,nonstandard_neg_nonmorph,23421,30015,NULL
1709034619,81d79c44745a2beeb8ff1df4c02783cd,PennController,32,0,main_trials,NULL,PennController,30,_Trial_,End,1709033834069,a,13,nonstandard_neg_nonmorph,23421,30015,NULL
1709034619,81d79c44745a2beeb8ff1df4c02783cd,PennController,41,0,main_trials,NULL,PennController,39,_Trial_,Start,1709033834070,a,18,standard_pos_nonmorph,20206,23457,NULL
1709034619,81d79c44745a2beeb8ff1df4c02783cd,PennController,41,0,main_trials,NULL,Scale,rating,Choice,6,1709033854276,a,18,standard_pos_nonmorph,20206,23457,NULL
1709034619,81d79c44745a2beeb8ff1df4c02783cd,PennController,41,0,main_trials,NULL,PennController,39,_Trial_,End,1709033857528,a,18,standard_pos_nonmorph,20206,23457,NULL
1709034619,81d79c44745a2beeb8ff1df4c02783cd,PennController,45,0,main_trials,NULL,PennController,43,_Trial_,Start,1709033857528,a,20,standard_pos_nonmorph,14651,15948,NULL
1709034619,81d79c44745a2beeb8ff1df4c02783cd,PennController,45,0,main_trials,NULL,Scale,rating,Choice,6,1709033872180,a,20,standard_pos_nonmorph,14651,15948,NULL
1709034619,81d79c44745a2beeb8ff1df4c02783cd,PennController,45,0,main_trials,NULL,PennController,43,_Trial_,End,1709033873478,a,20,standard_pos_nonmorph,14651,15948,NULL
1709034619,81d79c44745a2beeb8ff1df4c02783cd,PennController,8,0,main_trials,NULL,PennController,6,_Trial_,Start,1709033873478,a,1,nonstandard_neg_morph,24082,24798,NULL
1709034619,81d79c44745a2beeb8ff1df4c02783cd,PennController,8,0,main_trials,NULL,Scale,rating,Choice,5,1709033897560,a,1,nonstandard_neg_morph,24082,24798,NULL
1709034619,81d79c44745a2beeb8ff1df4c02783cd,PennController,8,0,main_trials,NULL,PennController,6,_Trial_,End,1709033898277,a,1,nonstandard_neg_morph,24082,24798,NULL
1709034619,81d79c44745a2beeb8ff1df4c02783cd,PennController,51,0,main_trials,NULL,PennController,49,_Trial_,Start,1709033898278,a,f3,neg_nonmorph,11230,15964,NULL
1709034619,81d79c44745a2beeb8ff1df4c02783cd,PennController,51,0,main_trials,NULL,Scale,rating,Choice,1,1709033909508,a,f3,neg_nonmorph,11230,15964,NULL
1709034619,81d79c44745a2beeb8ff1df4c02783cd,PennController,51,0,main_trials,NULL,PennController,49,_Trial_,End,1709033914242,a,f3,neg_nonmorph,11230,15964,NULL
1709034619,81d79c44745a2beeb8ff1df4c02783cd,PennController,20,0,main_trials,NULL,PennController,18,_Trial_,Start,1709033914243,a,7,nonstandard_neg_morph,15745,17293,NULL
1709034619,81d79c44745a2beeb8ff1df4c02783cd,PennController,20,0,main_trials,NULL,Scale,rating,Choice,3,1709033929988,a,7,nonstandard_neg_morph,15745,17293,NULL
1709034619,81d79c44745a2beeb8ff1df4c02783cd,PennController,20,0,main_trials,NULL,PennController,18,_Trial_,End,1709033931536,a,7,nonstandard_neg_morph,15745,17293,NULL
1709034619,81d79c44745a2beeb8ff1df4c02783cd,PennController,47,0,main_trials,NULL,PennController,45,_Trial_,Start,1709033931537,a,f1,pos_nonmorph,11545,12746,NULL
1709034619,81d79c44745a2beeb8ff1df4c02783cd,PennController,47,0,main_trials,NULL,Scale,rating,Choice,2,1709033943082,a,f1,pos_nonmorph,11545,12746,NULL
1709034619,81d79c44745a2beeb8ff1df4c02783cd,PennController,47,0,main_trials,NULL,PennController,45,_Trial_,End,1709033944284,a,f1,pos_nonmorph,11545,12746,NULL
1709034619,81d79c44745a2beeb8ff1df4c02783cd,PennController,37,0,main_trials,NULL,PennController,35,_Trial_,Start,1709033944284,a,16,standard_pos_nonmorph,14901,15568,NULL
1709034619,81d79c44745a2beeb8ff1df4c02783cd,PennController,37,0,main_trials,NULL,Scale,rating,Choice,6,1709033959185,a,16,standard_pos_nonmorph,14901,15568,NULL
1709034619,81d79c44745a2beeb8ff1df4c02783cd,PennController,37,0,main_trials,NULL,PennController,35,_Trial_,End,1709033959852,a,16,standard_pos_nonmorph,14901,15568,NULL
1709034619,81d79c44745a2beeb8ff1df4c02783cd,PennController,19,0,main_trials,NULL,PennController,17,_Trial_,Start,1709033959853,a,7,standard_pos_morph,18251,18934,NULL
1709034619,81d79c44745a2beeb8ff1df4c02783cd,PennController,19,0,main_trials,NULL,Scale,rating,Choice,6,1709033978104,a,7,standard_pos_morph,18251,18934,NULL
1709034619,81d79c44745a2beeb8ff1df4c02783cd,PennController,19,0,main_trials,NULL,PennController,17,_Trial_,End,1709033978788,a,7,standard_pos_morph,18251,18934,NULL
1709034619,81d79c44745a2beeb8ff1df4c02783cd,PennController,42,0,main_trials,NULL,PennController,40,_Trial_,Start,1709033978789,a,18,nonstandard_neg_nonmorph,13792,18118,NULL
1709034619,81d79c44745a2beeb8ff1df4c02783cd,PennController,42,0,main_trials,NULL,Scale,rating,Choice,6,1709033992581,a,18,nonstandard_neg_nonmorph,13792,18118,NULL
1709034619,81d79c44745a2beeb8ff1df4c02783cd,PennController,42,0,main_trials,NULL,Scale,rating,Choice,5,1709033993072,a,18,nonstandard_neg_nonmorph,13792,18118,NULL
1709034619,81d79c44745a2beeb8ff1df4c02783cd,PennController,42,0,main_trials,NULL,PennController,40,_Trial_,End,1709033996907,a,18,nonstandard_neg_nonmorph,13792,18118,NULL
1709034619,81d79c44745a2beeb8ff1df4c02783cd,PennController,46,0,main_trials,NULL,PennController,44,_Trial_,Start,1709033996908,a,20,nonstandard_neg_nonmorph,18471,22576,NULL
1709034619,81d79c44745a2beeb8ff1df4c02783cd,PennController,46,0,main_trials,NULL,Scale,rating,Choice,5,1709034015379,a,20,nonstandard_neg_nonmorph,18471,22576,NULL
1709034619,81d79c44745a2beeb8ff1df4c02783cd,PennController,46,0,main_trials,NULL,Scale,rating,Choice,4,1709034018939,a,20,nonstandard_neg_nonmorph,18471,22576,NULL
1709034619,81d79c44745a2beeb8ff1df4c02783cd,PennController,46,0,main_trials,NULL,PennController,44,_Trial_,End,1709034019484,a,20,nonstandard_neg_nonmorph,18471,22576,NULL
1709034619,81d79c44745a2beeb8ff1df4c02783cd,PennController,23,0,main_trials,NULL,PennController,21,_Trial_,Start,1709034019485,a,9,standard_pos_morph,20307,22428,NULL
1709034619,81d79c44745a2beeb8ff1df4c02783cd,PennController,23,0,main_trials,NULL,Scale,rating,Choice,6,1709034039792,a,9,standard_pos_morph,20307,22428,NULL
1709034619,81d79c44745a2beeb8ff1df4c02783cd,PennController,23,0,main_trials,NULL,Scale,rating,Choice,7,1709034041232,a,9,standard_pos_morph,20307,22428,NULL
1709034619,81d79c44745a2beeb8ff1df4c02783cd,PennController,23,0,main_trials,NULL,PennController,21,_Trial_,End,1709034041914,a,9,standard_pos_morph,20307,22428,NULL
1709034619,81d79c44745a2beeb8ff1df4c02783cd,PennController,26,0,main_trials,NULL,PennController,24,_Trial_,Start,1709034041915,a,10,nonstandard_neg_morph,16701,17354,NULL
1709034619,81d79c44745a2beeb8ff1df4c02783cd,PennController,26,0,main_trials,NULL,Scale,rating,Choice,4,1709034058616,a,10,nonstandard_neg_morph,16701,17354,NULL
1709034619,81d79c44745a2beeb8ff1df4c02783cd,PennController,26,0,main_trials,NULL,PennController,24,_Trial_,End,1709034059269,a,10,nonstandard_neg_morph,16701,17354,NULL
1709034619,81d79c44745a2beeb8ff1df4c02783cd,PennController,55,0,main_trials,NULL,PennController,53,_Trial_,Start,1709034059270,a,f5,pos_morph,7157,8812,NULL
1709034619,81d79c44745a2beeb8ff1df4c02783cd,PennController,55,0,main_trials,NULL,Scale,rating,Choice,1,1709034066427,a,f5,pos_morph,7157,8812,NULL
1709034619,81d79c44745a2beeb8ff1df4c02783cd,PennController,55,0,main_trials,NULL,PennController,53,_Trial_,End,1709034068083,a,f5,pos_morph,7157,8812,NULL
1709034619,81d79c44745a2beeb8ff1df4c02783cd,PennController,50,0,main_trials,NULL,PennController,48,_Trial_,Start,1709034068083,a,f2,neg_nonmorph,6631,7896,NULL
1709034619,81d79c44745a2beeb8ff1df4c02783cd,PennController,50,0,main_trials,NULL,Scale,rating,Choice,1,1709034074714,a,f2,neg_nonmorph,6631,7896,NULL
1709034619,81d79c44745a2beeb8ff1df4c02783cd,PennController,50,0,main_trials,NULL,PennController,48,_Trial_,End,1709034075979,a,f2,neg_nonmorph,6631,7896,NULL
1709034619,81d79c44745a2beeb8ff1df4c02783cd,PennController,30,0,main_trials,NULL,PennController,28,_Trial_,Start,1709034075980,a,12,nonstandard_neg_nonmorph,14077,15432,NULL
1709034619,81d79c44745a2beeb8ff1df4c02783cd,PennController,30,0,main_trials,NULL,Scale,rating,Choice,4,1709034090057,a,12,nonstandard_neg_nonmorph,14077,15432,NULL
1709034619,81d79c44745a2beeb8ff1df4c02783cd,PennController,30,0,main_trials,NULL,PennController,28,_Trial_,End,1709034091412,a,12,nonstandard_neg_nonmorph,14077,15432,NULL
1709034619,81d79c44745a2beeb8ff1df4c02783cd,PennController,12,0,main_trials,NULL,PennController,10,_Trial_,Start,1709034091413,a,3,nonstandard_neg_morph,17545,18668,NULL
1709034619,81d79c44745a2beeb8ff1df4c02783cd,PennController,12,0,main_trials,NULL,Scale,rating,Choice,2,1709034108958,a,3,nonstandard_neg_morph,17545,18668,NULL
1709034619,81d79c44745a2beeb8ff1df4c02783cd,PennController,12,0,main_trials,NULL,PennController,10,_Trial_,End,1709034110081,a,3,nonstandard_neg_morph,17545,18668,NULL
1709034619,81d79c44745a2beeb8ff1df4c02783cd,PennController,13,0,main_trials,NULL,PennController,11,_Trial_,Start,1709034110082,a,4,standard_pos_morph,12872,15202,NULL
1709034619,81d79c44745a2beeb8ff1df4c02783cd,PennController,13,0,main_trials,NULL,Scale,rating,Choice,6,1709034122954,a,4,standard_pos_morph,12872,15202,NULL
1709034619,81d79c44745a2beeb8ff1df4c02783cd,PennController,13,0,main_trials,NULL,Scale,rating,Choice,7,1709034124483,a,4,standard_pos_morph,12872,15202,NULL
1709034619,81d79c44745a2beeb8ff1df4c02783cd,PennController,13,0,main_trials,NULL,PennController,11,_Trial_,End,1709034125284,a,4,standard_pos_morph,12872,15202,NULL
1709034619,81d79c44745a2beeb8ff1df4c02783cd,PennController,34,0,main_trials,NULL,PennController,32,_Trial_,Start,1709034125285,a,14,nonstandard_neg_nonmorph,9615,10469,NULL
1709034619,81d79c44745a2beeb8ff1df4c02783cd,PennController,34,0,main_trials,NULL,Scale,rating,Choice,3,1709034134900,a,14,nonstandard_neg_nonmorph,9615,10469,NULL
1709034619,81d79c44745a2beeb8ff1df4c02783cd,PennController,34,0,main_trials,NULL,PennController,32,_Trial_,End,1709034135754,a,14,nonstandard_neg_nonmorph,9615,10469,NULL
1709034619,81d79c44745a2beeb8ff1df4c02783cd,PennController,56,0,main_trials,NULL,PennController,54,_Trial_,Start,1709034135755,a,f5,neg_morph,7890,8847,NULL
1709034619,81d79c44745a2beeb8ff1df4c02783cd,PennController,56,0,main_trials,NULL,Scale,rating,Choice,1,1709034143645,a,f5,neg_morph,7890,8847,NULL
1709034619,81d79c44745a2beeb8ff1df4c02783cd,PennController,56,0,main_trials,NULL,PennController,54,_Trial_,End,1709034144603,a,f5,neg_morph,7890,8847,NULL
